correct,verb,item,condition,sentence,rt,stimulus,response,trial_type,trial_index,plugin_version,time_elapsed,ITEM1_TYPE,ITEM2,ITEM1,SESSION,ITEM2_TYPE,PARTICIPANT
Y,want,D15,DOUBLE_CONTROL,Sandra-the-Urbanite wants to eat a lollipop or a biscuit,10686,a lollipop or a biscuit,b,html-keyboard-response,4,2.1.0,112104,wants,a biscuit,a lollipop,PRACTICE,,683735a1d92eafa1ffbf9348
Y,want,S15,SINGLE_CONTROL,Sandra-the-Nomad wants to eat an apple,2916,an apple,n,html-keyboard-response,10,2.1.0,121688,wants,,an apple,PRACTICE,,683735a1d92eafa1ffbf9348
Y,does not mind,E18,DOUBLE_CONTROL_MIND,Anthony-the-Urbanite is does not mind eating a meatball or a kebab,2029,a meatball or a kebab,b,html-keyboard-response,17,2.1.0,129717,accepts,a kebab,a meatball,PRACTICE,,683735a1d92eafa1ffbf9348
N,want,D11,DOUBLE_CONTROL,Sarah-the-Urbanite wants to eat a cranberry or a grapefruit,2155,a cranberry or a grapefruit,n,html-keyboard-response,23,2.1.0,136928,dislikes,a grapefruit,a cranberry,PRACTICE,,683735a1d92eafa1ffbf9348
Y,want,S10,SINGLE_CONTROL,Patricia-the-Nomad wants to eat a cranberry,1863,a cranberry,n,html-keyboard-response,29,2.1.0,142635,wants,,a cranberry,PRACTICE,,683735a1d92eafa1ffbf9348
N,does not mind,F8,SINGLE_CONTROL_MIND,William-the-Urbanite does not mind eating a grapefruit,1793,a grapefruit,n,html-keyboard-response,36,2.1.0,149805,dislikes,,a grapefruit,PRACTICE,,683735a1d92eafa1ffbf9348
N,want,D17,DOUBLE_CONTROL,Susan-the-Urbanite wants to eat a meatball or a kebab,969,a meatball or a kebab,b,html-keyboard-response,42,2.1.0,155798,accepts,a kebab,a meatball,PRACTICE,,683735a1d92eafa1ffbf9348
N,want,S17,SINGLE_CONTROL,Susan-the-Nomad wants to eat a meatball,1086,a meatball,n,html-keyboard-response,48,2.1.0,161097,accepts,,a meatball,PRACTICE,,683735a1d92eafa1ffbf9348
N,want,S1,SINGLE_CONTROL,Michael-the-Urbanite wants to eat a strawberry,3370,a strawberry,n,html-keyboard-response,54,2.1.0,168216,dislikes,,a strawberry,PRACTICE,,683735a1d92eafa1ffbf9348
N,does not mind,E4,DOUBLE_CONTROL_MIND,Barbara-the-Nomad is does not mind eating a chocolate or a brownie,2533,a chocolate or a brownie,n,html-keyboard-response,61,2.1.0,174781,dislikes,a brownie,a chocolate,PRACTICE,,683735a1d92eafa1ffbf9348
Y,does not mind,E3,DOUBLE_CONTROL_MIND,Dorothy-the-Nomad is does not mind eating a steak or beef,1228,a steak or beef,n,html-keyboard-response,68,2.1.0,179908,accepts,beef,a steak,PRACTICE,,683735a1d92eafa1ffbf9348
N,does not mind,E9,DOUBLE_CONTROL_MIND,Margaret-the-Nomad is does not mind eating a cookie or a chocolate,2809,a cookie or a chocolate,n,html-keyboard-response,75,2.1.0,186943,dislikes,a chocolate,a cookie,PRACTICE,,683735a1d92eafa1ffbf9348
N,want,D1,DOUBLE_CONTROL,Michael-the-Nomad wants to eat a chocolate or a brownie,4902,a chocolate or a brownie,n,html-keyboard-response,81,2.1.0,195387,dislikes,a brownie,a chocolate,PRACTICE,,683735a1d92eafa1ffbf9348
N,want,S12,SINGLE_CONTROL,Linda-the-Nomad wants to eat a kebab,1948,a kebab,b,html-keyboard-response,87,2.1.0,201003,accepts,,a kebab,PRACTICE,,683735a1d92eafa1ffbf9348
Y,want,S5,SINGLE_CONTROL,Elizabeth-the-Urbanite wants to eat a cookie,2570,a cookie,b,html-keyboard-response,93,2.1.0,207758,wants,,a cookie,PRACTICE,,683735a1d92eafa1ffbf9348
Y,want,D5,DOUBLE_CONTROL,Elizabeth-the-Nomad wants to eat a grapefruit or a strawberry,1812,a grapefruit or a strawberry,n,html-keyboard-response,99,2.1.0,214654,wants,a strawberry,a grapefruit,PRACTICE,,683735a1d92eafa1ffbf9348
N,does not mind,F18,SINGLE_CONTROL_MIND,Anthony-the-Nomad does not mind eating a lollipop,1282,a lollipop,n,html-keyboard-response,106,2.1.0,219839,dislikes,,a lollipop,PRACTICE,,683735a1d92eafa1ffbf9348
Y,does not mind,E8,DOUBLE_CONTROL_MIND,William-the-Nomad is does not mind eating a burger or a steak,1467,a burger or a steak,n,html-keyboard-response,113,2.1.0,225843,accepts,a steak,a burger,PRACTICE,,683735a1d92eafa1ffbf9348
N,want,D12,DOUBLE_CONTROL,Linda-the-Urbanite wants to eat a kebab or a burger,2994,a kebab or a burger,n,html-keyboard-response,119,2.1.0,232466,accepts,a burger,a kebab,PRACTICE,,683735a1d92eafa1ffbf9348
Y,does not mind,F4,SINGLE_CONTROL_MIND,Barbara-the-Urbanite does not mind eating a steak,2481,a steak,b,html-keyboard-response,126,2.1.0,238591,accepts,,a steak,PRACTICE,,683735a1d92eafa1ffbf9348
Y,want,D10,DOUBLE_CONTROL,Patricia-the-Urbanite wants to eat a biscuit or a cookie,2329,a biscuit or a cookie,n,html-keyboard-response,132,2.1.0,244700,wants,a cookie,a biscuit,PRACTICE,,683735a1d92eafa1ffbf9348
N,want,D6,DOUBLE_CONTROL,Nancy-the-Nomad wants to eat a cookie or a chocolate,1673,a cookie or a chocolate,n,html-keyboard-response,138,2.1.0,249950,dislikes,a chocolate,a cookie,PRACTICE,,683735a1d92eafa1ffbf9348
Y,does not mind,E13,DOUBLE_CONTROL_MIND,Andrew-the-Urbanite is does not mind eating a kebab or a burger,1321,a kebab or a burger,b,html-keyboard-response,145,2.1.0,256119,accepts,a burger,a kebab,PRACTICE,,683735a1d92eafa1ffbf9348
N,does not mind,E14,DOUBLE_CONTROL_MIND,Matthew-the-Urbanite is does not mind eating a cranberry or a grapefruit,1731,a cranberry or a grapefruit,n,html-keyboard-response,152,2.1.0,261928,dislikes,a grapefruit,a cranberry,PRACTICE,,683735a1d92eafa1ffbf9348
N,want,S7,SINGLE_CONTROL,Daniel-the-Urbanite wants to eat a burger,1816,a burger,b,html-keyboard-response,158,2.1.0,267179,accepts,,a burger,PRACTICE,,683735a1d92eafa1ffbf9348
Y,does not mind,F19,SINGLE_CONTROL_MIND,Jennifer-the-Nomad does not mind eating a meatball,1618,a meatball,b,html-keyboard-response,165,2.1.0,273247,accepts,,a meatball,PRACTICE,,683735a1d92eafa1ffbf9348
N,does not mind,E19,DOUBLE_CONTROL_MIND,Jennifer-the-Urbanite is does not mind eating an apple or a cranberry,1506,an apple or a cranberry,n,html-keyboard-response,172,2.1.0,280253,dislikes,a cranberry,an apple,PRACTICE,,683735a1d92eafa1ffbf9348
N,want,S16,SINGLE_CONTROL,Ashley-the-Nomad wants to eat a lollipop,2133,a lollipop,b,html-keyboard-response,178,2.1.0,285955,dislikes,,a lollipop,PRACTICE,,683735a1d92eafa1ffbf9348
N,does not mind,F13,SINGLE_CONTROL_MIND,Andrew-the-Nomad does not mind eating a biscuit,1850,a biscuit,n,html-keyboard-response,185,2.1.0,292023,dislikes,,a biscuit,PRACTICE,,683735a1d92eafa1ffbf9348
N,does not mind,F3,SINGLE_CONTROL_MIND,Dorothy-the-Urbanite does not mind eating a strawberry,2489,a strawberry,n,html-keyboard-response,192,2.1.0,298080,dislikes,,a strawberry,PRACTICE,,683735a1d92eafa1ffbf9348
N,want,D7,DOUBLE_CONTROL,Daniel-the-Nomad wants to eat a burger or a steak,2032,a burger or a steak,b,html-keyboard-response,198,2.1.0,303460,accepts,a steak,a burger,PRACTICE,,683735a1d92eafa1ffbf9348
N,want,S2,SINGLE_CONTROL,Christopher-the-Urbanite wants to eat a steak,3583,a steak,b,html-keyboard-response,204,2.1.0,310927,accepts,,a steak,PRACTICE,,683735a1d92eafa1ffbf9348
N,want,D16,DOUBLE_CONTROL,Ashley-the-Urbanite wants to eat an apple or a cranberry,1018,an apple or a cranberry,n,html-keyboard-response,210,2.1.0,315748,dislikes,a cranberry,an apple,PRACTICE,,683735a1d92eafa1ffbf9348
Y,want,D0,DOUBLE_CONTROL,Charles-the-Nomad wants to eat a strawberry or a peach,1031,a strawberry or a peach,n,html-keyboard-response,216,2.1.0,320329,wants,a peach,a strawberry,PRACTICE,,683735a1d92eafa1ffbf9348
N,want,S6,SINGLE_CONTROL,Nancy-the-Urbanite wants to eat a grapefruit,930,a grapefruit,n,html-keyboard-response,222,2.1.0,325192,dislikes,,a grapefruit,PRACTICE,,683735a1d92eafa1ffbf9348
N,want,D2,DOUBLE_CONTROL,Christopher-the-Nomad wants to eat a steak or beef,1182,a steak or beef,b,html-keyboard-response,228,2.1.0,329646,accepts,beef,a steak,PRACTICE,,683735a1d92eafa1ffbf9348
Y,does not mind,F14,SINGLE_CONTROL_MIND,Matthew-the-Nomad does not mind eating a kebab,3260,a kebab,n,html-keyboard-response,235,2.1.0,337809,accepts,,a kebab,PRACTICE,,683735a1d92eafa1ffbf9348
Y,does not mind,F9,SINGLE_CONTROL_MIND,Margaret-the-Urbanite does not mind eating a burger,2236,a burger,b,html-keyboard-response,242,2.1.0,344764,accepts,,a burger,PRACTICE,,683735a1d92eafa1ffbf9348
Y,want,S0,SINGLE_CONTROL,Charles-the-Urbanite wants to eat a chocolate,2825,a chocolate,b,html-keyboard-response,248,2.1.0,351442,wants,,a chocolate,PRACTICE,,683735a1d92eafa1ffbf9348
N,want,S11,SINGLE_CONTROL,Sarah-the-Nomad wants to eat a biscuit,1552,a biscuit,n,html-keyboard-response,254,2.1.0,356472,dislikes,,a biscuit,PRACTICE,,683735a1d92eafa1ffbf9348
Y/N,want,E22,EXPERIMENTAL,,3562,a mango or ribs,b,html-keyboard-response,261,2.1.0,388055,wants,ribs,a mango,EXPERIMENTAL,accepts,683735a1d92eafa1ffbf9348
N,want,S35,SINGLE_CONTROL,,1282,a ham,b,html-keyboard-response,266,2.1.0,391875,accepts,,a ham,EXPERIMENTAL,,683735a1d92eafa1ffbf9348
N,want,S1,SINGLE_CONTROL,,1975,a strawberry,n,html-keyboard-response,271,2.1.0,396384,dislikes,,a strawberry,EXPERIMENTAL,,683735a1d92eafa1ffbf9348
Y/N,want,E5,EXPERIMENTAL,,2244,a grapefruit or a burger,b,html-keyboard-response,276,2.1.0,401189,dislikes,a burger,a grapefruit,EXPERIMENTAL,accepts,683735a1d92eafa1ffbf9348
Y,want,S21,SINGLE_CONTROL,,810,a mango,n,html-keyboard-response,281,2.1.0,404541,wants,,a mango,EXPERIMENTAL,,683735a1d92eafa1ffbf9348
N,want,S38,SINGLE_CONTROL,,1251,bacon,b,html-keyboard-response,286,2.1.0,408350,accepts,,bacon,EXPERIMENTAL,,683735a1d92eafa1ffbf9348
N,want,S7,SINGLE_CONTROL,,2165,a cranberry,n,html-keyboard-response,291,2.1.0,413082,dislikes,,a cranberry,EXPERIMENTAL,,683735a1d92eafa1ffbf9348
N,want,D8,DOUBLE_CONTROL,,924,a kebab or a burger,b,html-keyboard-response,296,2.1.0,416541,accepts,a burger,a kebab,EXPERIMENTAL,,683735a1d92eafa1ffbf9348
N,want,S26,SINGLE_CONTROL,,2259,pork,b,html-keyboard-response,301,2.1.0,421340,accepts,,pork,EXPERIMENTAL,,683735a1d92eafa1ffbf9348
N,want,D2,DOUBLE_CONTROL,,1537,a steak or beef,b,html-keyboard-response,306,2.1.0,425440,accepts,beef,a steak,EXPERIMENTAL,,683735a1d92eafa1ffbf9348
N,want,S16,SINGLE_CONTROL,,969,a cake,n,html-keyboard-response,311,2.1.0,428972,dislikes,,a cake,EXPERIMENTAL,,683735a1d92eafa1ffbf9348
N,want,S17,SINGLE_CONTROL,,1988,a meatloaf,b,html-keyboard-response,316,2.1.0,433524,accepts,,a meatloaf,EXPERIMENTAL,,683735a1d92eafa1ffbf9348
Y,does not mind,M49,SINGLE_CONTROL_MIND,,1835,duck,n,html-keyboard-response,322,2.1.0,438189,accepts,,duck,EXPERIMENTAL,,683735a1d92eafa1ffbf9348
N,want,D19,DOUBLE_CONTROL,,1987,a muffin or a cake,b,html-keyboard-response,327,2.1.0,442740,dislikes,a cake,a muffin,EXPERIMENTAL,,683735a1d92eafa1ffbf9348
Y,want,S30,SINGLE_CONTROL,,3055,a popsicle,b,html-keyboard-response,332,2.1.0,448361,wants,,a popsicle,EXPERIMENTAL,,683735a1d92eafa1ffbf9348
N,want,S41,SINGLE_CONTROL,,2303,a roast,n,html-keyboard-response,337,2.1.0,453227,accepts,,a roast,EXPERIMENTAL,,683735a1d92eafa1ffbf9348
Y,does not mind,N51,DOUBLE_CONTROL_MIND,,6006,brisket or a meatball,b,html-keyboard-response,343,2.1.0,462048,accepts,a meatball,brisket,EXPERIMENTAL,,683735a1d92eafa1ffbf9348
Y/N,want,E0,EXPERIMENTAL,,3055,a chocolate or a strawberry,b,html-keyboard-response,348,2.1.0,467665,wants,a strawberry,a chocolate,EXPERIMENTAL,dislikes,683735a1d92eafa1ffbf9348
N,want,D28,DOUBLE_CONTROL,,2967,a brownie or a donut,b,html-keyboard-response,353,2.1.0,473179,dislikes,a donut,a brownie,EXPERIMENTAL,,683735a1d92eafa1ffbf9348
N,want,D29,DOUBLE_CONTROL,,1362,beef or pork,n,html-keyboard-response,358,2.1.0,477111,accepts,pork,beef,EXPERIMENTAL,,683735a1d92eafa1ffbf9348
N,want,S20,SINGLE_CONTROL,,6249,a hotdog,n,html-keyboard-response,363,2.1.0,485897,accepts,,a hotdog,EXPERIMENTAL,,683735a1d92eafa1ffbf9348
Y,want,S24,SINGLE_CONTROL,,1771,a plum,b,html-keyboard-response,368,2.1.0,490220,wants,,a plum,EXPERIMENTAL,,683735a1d92eafa1ffbf9348
N,want,S25,SINGLE_CONTROL,,3071,a donut,b,html-keyboard-response,373,2.1.0,495837,dislikes,,a donut,EXPERIMENTAL,,683735a1d92eafa1ffbf9348
Y/N,want,E4,EXPERIMENTAL,,1202,a cookie or a burger,b,html-keyboard-response,378,2.1.0,499603,wants,a burger,a cookie,EXPERIMENTAL,accepts,683735a1d92eafa1ffbf9348
Y,does not mind,N57,DOUBLE_CONTROL_MIND,,2179,mutton or a hotdog,n,html-keyboard-response,384,2.1.0,504598,accepts,a hotdog,mutton,EXPERIMENTAL,,683735a1d92eafa1ffbf9348
N,want,D5,DOUBLE_CONTROL,,960,a burger or a steak,b,html-keyboard-response,389,2.1.0,508115,accepts,a steak,a burger,EXPERIMENTAL,,683735a1d92eafa1ffbf9348
Y/N,want,E29,EXPERIMENTAL,,2058,a brownie or beef,b,html-keyboard-response,394,2.1.0,512729,dislikes,beef,a brownie,EXPERIMENTAL,accepts,683735a1d92eafa1ffbf9348
Y/N,want,E28,EXPERIMENTAL,,902,a peach or beef,n,html-keyboard-response,399,2.1.0,516188,wants,beef,a peach,EXPERIMENTAL,accepts,683735a1d92eafa1ffbf9348
N,want,S22,SINGLE_CONTROL,,2387,caramel,b,html-keyboard-response,404,2.1.0,521109,dislikes,,caramel,EXPERIMENTAL,,683735a1d92eafa1ffbf9348
Y,want,D6,DOUBLE_CONTROL,,2435,a biscuit or a cookie,n,html-keyboard-response,409,2.1.0,526108,wants,a cookie,a biscuit,EXPERIMENTAL,,683735a1d92eafa1ffbf9348
Y,does not mind,M45,SINGLE_CONTROL_MIND,,6329,salami,b,html-keyboard-response,415,2.1.0,535269,accepts,,salami,EXPERIMENTAL,,683735a1d92eafa1ffbf9348
Y/N,want,E12,EXPERIMENTAL,,3560,a cupcake or a pear,n,html-keyboard-response,420,2.1.0,541386,wants,a pear,a cupcake,EXPERIMENTAL,dislikes,683735a1d92eafa1ffbf9348
N,want,D20,DOUBLE_CONTROL,,1365,a hotdog or a meatloaf,b,html-keyboard-response,425,2.1.0,545311,accepts,a meatloaf,a hotdog,EXPERIMENTAL,,683735a1d92eafa1ffbf9348
Y/N,does not mind,Z61,EXPERIMENTAL,,1197,duck or an eclair,b,html-keyboard-response,431,2.1.0,549310,accepts,an eclair,duck,EXPERIMENTAL,dislikes,683735a1d92eafa1ffbf9348
Y,want,S27,SINGLE_CONTROL,,901,a peach,n,html-keyboard-response,436,2.1.0,552760,wants,,a peach,EXPERIMENTAL,,683735a1d92eafa1ffbf9348
Y/N,want,E14,EXPERIMENTAL,,1294,a sausage or a pear,b,html-keyboard-response,441,2.1.0,556609,accepts,a pear,a sausage,EXPERIMENTAL,dislikes,683735a1d92eafa1ffbf9348
Y,want,S3,SINGLE_CONTROL,,1992,a cookie,b,html-keyboard-response,446,2.1.0,561157,wants,,a cookie,EXPERIMENTAL,,683735a1d92eafa1ffbf9348
Y,want,D27,DOUBLE_CONTROL,,1656,a peach or a plum,b,html-keyboard-response,451,2.1.0,565361,wants,a plum,a peach,EXPERIMENTAL,,683735a1d92eafa1ffbf9348
Y,want,S6,SINGLE_CONTROL,,2377,a biscuit,b,html-keyboard-response,456,2.1.0,570292,wants,,a biscuit,EXPERIMENTAL,,683735a1d92eafa1ffbf9348
Y,want,S0,SINGLE_CONTROL,,1686,a chocolate,b,html-keyboard-response,461,2.1.0,574536,wants,,a chocolate,EXPERIMENTAL,,683735a1d92eafa1ffbf9348
N,want,D14,DOUBLE_CONTROL,,1227,a sausage or a meatball,b,html-keyboard-response,466,2.1.0,578328,accepts,a meatball,a sausage,EXPERIMENTAL,,683735a1d92eafa1ffbf9348
Y,want,D3,DOUBLE_CONTROL,,2420,a cookie or a chocolate,b,html-keyboard-response,471,2.1.0,583305,wants,a chocolate,a cookie,EXPERIMENTAL,,683735a1d92eafa1ffbf9348
N,want,D4,DOUBLE_CONTROL,,1088,a grapefruit or a strawberry,n,html-keyboard-response,476,2.1.0,586942,dislikes,a strawberry,a grapefruit,EXPERIMENTAL,,683735a1d92eafa1ffbf9348
Y/N,want,E23,EXPERIMENTAL,,1081,caramel or ribs,b,html-keyboard-response,481,2.1.0,590585,dislikes,ribs,caramel,EXPERIMENTAL,accepts,683735a1d92eafa1ffbf9348
Y/N,does not mind,Z58,EXPERIMENTAL,,2287,a banana or turkey,n,html-keyboard-response,487,2.1.0,595692,dislikes,turkey,a banana,EXPERIMENTAL,accepts,683735a1d92eafa1ffbf9348
N,does not mind,M46,SINGLE_CONTROL_MIND,,3253,fudge,n,html-keyboard-response,493,2.1.0,601776,dislikes,,fudge,EXPERIMENTAL,,683735a1d92eafa1ffbf9348
N,does not mind,N52,DOUBLE_CONTROL_MIND,,2136,a nectarine or a pear,n,html-keyboard-response,499,2.1.0,606744,dislikes,a pear,a nectarine,EXPERIMENTAL,,683735a1d92eafa1ffbf9348
N,want,D11,DOUBLE_CONTROL,,1371,a meatball or a kebab,b,html-keyboard-response,504,2.1.0,610676,accepts,a kebab,a meatball,EXPERIMENTAL,,683735a1d92eafa1ffbf9348
Y/N,does not mind,Z60,EXPERIMENTAL,,2348,fudge or lamb,n,html-keyboard-response,510,2.1.0,615827,dislikes,lamb,fudge,EXPERIMENTAL,accepts,683735a1d92eafa1ffbf9348
N,want,D13,DOUBLE_CONTROL,,1960,a pear or an apple,n,html-keyboard-response,515,2.1.0,620352,dislikes,an apple,a pear,EXPERIMENTAL,,683735a1d92eafa1ffbf9348
N,want,D26,DOUBLE_CONTROL,,856,pork or ribs,b,html-keyboard-response,520,2.1.0,623767,accepts,ribs,pork,EXPERIMENTAL,,683735a1d92eafa1ffbf9348
Y,want,S15,SINGLE_CONTROL,,1471,a cherry,n,html-keyboard-response,525,2.1.0,627797,wants,,a cherry,EXPERIMENTAL,,683735a1d92eafa1ffbf9348
N,want,S5,SINGLE_CONTROL,,1581,a burger,b,html-keyboard-response,530,2.1.0,631928,accepts,,a burger,EXPERIMENTAL,,683735a1d92eafa1ffbf9348
Y/N,does not mind,Z59,EXPERIMENTAL,,1652,salami or a kiwi,n,html-keyboard-response,536,2.1.0,636383,accepts,a kiwi,salami,EXPERIMENTAL,dislikes,683735a1d92eafa1ffbf9348
N,want,D7,DOUBLE_CONTROL,,1224,a cranberry or a grapefruit,n,html-keyboard-response,541,2.1.0,640173,dislikes,a grapefruit,a cranberry,EXPERIMENTAL,,683735a1d92eafa1ffbf9348
Y/N,want,E19,EXPERIMENTAL,,3831,a hotdog or an orange,b,html-keyboard-response,546,2.1.0,646560,accepts,an orange,a hotdog,EXPERIMENTAL,wants,683735a1d92eafa1ffbf9348
Y,want,D24,DOUBLE_CONTROL,,1675,a plum or a mango,b,html-keyboard-response,551,2.1.0,650775,wants,a mango,a plum,EXPERIMENTAL,,683735a1d92eafa1ffbf9348
N,want,S19,SINGLE_CONTROL,,3290,a muffin,n,html-keyboard-response,556,2.1.0,656607,dislikes,,a muffin,EXPERIMENTAL,,683735a1d92eafa1ffbf9348
N,want,D23,DOUBLE_CONTROL,,2672,ribs or a hotdog,n,html-keyboard-response,561,2.1.0,661842,accepts,a hotdog,ribs,EXPERIMENTAL,,683735a1d92eafa1ffbf9348
N,want,D16,DOUBLE_CONTROL,,2872,a cake or a cupcake,n,html-keyboard-response,566,2.1.0,667243,dislikes,a cupcake,a cake,EXPERIMENTAL,,683735a1d92eafa1ffbf9348
N,want,S34,SINGLE_CONTROL,,982,a pineapple,n,html-keyboard-response,571,2.1.0,670786,dislikes,,a pineapple,EXPERIMENTAL,,683735a1d92eafa1ffbf9348
Y/N,want,E21,EXPERIMENTAL,,2640,caramel or a mango,n,html-keyboard-response,577,2.1.0,680712,dislikes,a mango,caramel,EXPERIMENTAL,wants,683735a1d92eafa1ffbf9348
Y/N,want,E27,EXPERIMENTAL,,1613,a brownie or a peach,n,html-keyboard-response,582,2.1.0,684888,dislikes,a peach,a brownie,EXPERIMENTAL,wants,683735a1d92eafa1ffbf9348
N,want,S13,SINGLE_CONTROL,,896,a pear,n,html-keyboard-response,587,2.1.0,688338,dislikes,,a pear,EXPERIMENTAL,,683735a1d92eafa1ffbf9348
Y/N,want,E2,EXPERIMENTAL,,1355,a steak or a strawberry,b,html-keyboard-response,592,2.1.0,692247,accepts,a strawberry,a steak,EXPERIMENTAL,dislikes,683735a1d92eafa1ffbf9348
Y/N,want,E3,EXPERIMENTAL,,2723,a grapefruit or a cookie,n,html-keyboard-response,597,2.1.0,697516,dislikes,a cookie,a grapefruit,EXPERIMENTAL,wants,683735a1d92eafa1ffbf9348
Y,want,S36,SINGLE_CONTROL,,2562,a papaya,n,html-keyboard-response,602,2.1.0,702639,wants,,a papaya,EXPERIMENTAL,,683735a1d92eafa1ffbf9348
Y,want,S9,SINGLE_CONTROL,,1661,a lollipop,b,html-keyboard-response,607,2.1.0,706855,wants,,a lollipop,EXPERIMENTAL,,683735a1d92eafa1ffbf9348
Y,want,D12,DOUBLE_CONTROL,,1858,a cupcake or a lollipop,b,html-keyboard-response,612,2.1.0,711265,wants,a lollipop,a cupcake,EXPERIMENTAL,,683735a1d92eafa1ffbf9348
N,want,S32,SINGLE_CONTROL,,966,chicken,b,html-keyboard-response,617,2.1.0,714779,accepts,,chicken,EXPERIMENTAL,,683735a1d92eafa1ffbf9348
N,want,S37,SINGLE_CONTROL,,3065,a truffle,b,html-keyboard-response,622,2.1.0,720397,dislikes,,a truffle,EXPERIMENTAL,,683735a1d92eafa1ffbf9348
Y,want,S33,SINGLE_CONTROL,,2951,a marshmallow,n,html-keyboard-response,627,2.1.0,725899,wants,,a marshmallow,EXPERIMENTAL,,683735a1d92eafa1ffbf9348
N,want,S4,SINGLE_CONTROL,,848,a grapefruit,n,html-keyboard-response,632,2.1.0,729283,dislikes,,a grapefruit,EXPERIMENTAL,,683735a1d92eafa1ffbf9348
N,want,D25,DOUBLE_CONTROL,,3348,a donut or caramel,b,html-keyboard-response,637,2.1.0,735168,dislikes,caramel,a donut,EXPERIMENTAL,,683735a1d92eafa1ffbf9348
Y,want,D21,DOUBLE_CONTROL,,1075,a mango or an orange,n,html-keyboard-response,642,2.1.0,738778,wants,an orange,a mango,EXPERIMENTAL,,683735a1d92eafa1ffbf9348
N,want,S23,SINGLE_CONTROL,,3106,ribs,n,html-keyboard-response,647,2.1.0,744409,accepts,,ribs,EXPERIMENTAL,,683735a1d92eafa1ffbf9348
N,does not mind,N56,DOUBLE_CONTROL_MIND,,3538,nougat or a muffin,b,html-keyboard-response,653,2.1.0,750777,dislikes,a muffin,nougat,EXPERIMENTAL,,683735a1d92eafa1ffbf9348
Y,does not mind,N53,DOUBLE_CONTROL_MIND,,1480,veal or a sausage,b,html-keyboard-response,659,2.1.0,755069,accepts,a sausage,veal,EXPERIMENTAL,,683735a1d92eafa1ffbf9348
Y,want,D18,DOUBLE_CONTROL,,2087,an orange or a cherry,n,html-keyboard-response,664,2.1.0,759709,wants,a cherry,an orange,EXPERIMENTAL,,683735a1d92eafa1ffbf9348
Y,want,S18,SINGLE_CONTROL,,1849,an orange,b,html-keyboard-response,669,2.1.0,764124,wants,,an orange,EXPERIMENTAL,,683735a1d92eafa1ffbf9348
Y,want,D9,DOUBLE_CONTROL,,1504,a lollipop or a biscuit,b,html-keyboard-response,674,2.1.0,768180,wants,a biscuit,a lollipop,EXPERIMENTAL,,683735a1d92eafa1ffbf9348
Y/N,want,E13,EXPERIMENTAL,,1191,a sausage or a cupcake,b,html-keyboard-response,679,2.1.0,771933,accepts,a cupcake,a sausage,EXPERIMENTAL,wants,683735a1d92eafa1ffbf9348
Y,want,S12,SINGLE_CONTROL,,3101,a cupcake,b,html-keyboard-response,684,2.1.0,777595,wants,,a cupcake,EXPERIMENTAL,,683735a1d92eafa1ffbf9348
Y/N,want,E1,EXPERIMENTAL,,1551,a steak or a chocolate,b,html-keyboard-response,689,2.1.0,781679,accepts,a chocolate,a steak,EXPERIMENTAL,wants,683735a1d92eafa1ffbf9348
Y/N,want,E17,EXPERIMENTAL,,2814,a cake or a meatloaf,b,html-keyboard-response,694,2.1.0,787062,dislikes,a meatloaf,a cake,EXPERIMENTAL,accepts,683735a1d92eafa1ffbf9348
Y,does not mind,M47,SINGLE_CONTROL_MIND,,1532,lamb,n,html-keyboard-response,700,2.1.0,791395,accepts,,lamb,EXPERIMENTAL,,683735a1d92eafa1ffbf9348
N,want,D1,DOUBLE_CONTROL,,2198,a strawberry or a peach,n,html-keyboard-response,705,2.1.0,796163,dislikes,a peach,a strawberry,EXPERIMENTAL,,683735a1d92eafa1ffbf9348
N,does not mind,M42,SINGLE_CONTROL_MIND,,1036,a banana,n,html-keyboard-response,711,2.1.0,800000,dislikes,,a banana,EXPERIMENTAL,,683735a1d92eafa1ffbf9348
N,does not mind,M44,SINGLE_CONTROL_MIND,,863,a kiwi,n,html-keyboard-response,717,2.1.0,803696,dislikes,,a kiwi,EXPERIMENTAL,,683735a1d92eafa1ffbf9348
Y,does not mind,N55,DOUBLE_CONTROL_MIND,,3553,pastrami or a meatloaf,b,html-keyboard-response,723,2.1.0,810045,accepts,a meatloaf,pastrami,EXPERIMENTAL,,683735a1d92eafa1ffbf9348
N,want,S31,SINGLE_CONTROL,,1367,a blueberry,n,html-keyboard-response,728,2.1.0,813945,dislikes,,a blueberry,EXPERIMENTAL,,683735a1d92eafa1ffbf9348
N,want,S11,SINGLE_CONTROL,,1667,a meatball,b,html-keyboard-response,733,2.1.0,818145,accepts,,a meatball,EXPERIMENTAL,,683735a1d92eafa1ffbf9348
N,want,S29,SINGLE_CONTROL,,978,beef,b,html-keyboard-response,738,2.1.0,821680,accepts,,beef,EXPERIMENTAL,,683735a1d92eafa1ffbf9348
Y/N,want,E15,EXPERIMENTAL,,2648,a cake or a cherry,n,html-keyboard-response,743,2.1.0,826885,dislikes,a cherry,a cake,EXPERIMENTAL,wants,683735a1d92eafa1ffbf9348
N,want,S2,SINGLE_CONTROL,,1400,a steak,b,html-keyboard-response,748,2.1.0,830838,accepts,,a steak,EXPERIMENTAL,,683735a1d92eafa1ffbf9348
Y,want,S39,SINGLE_CONTROL,,2351,an apricot,n,html-keyboard-response,753,2.1.0,835742,wants,,an apricot,EXPERIMENTAL,,683735a1d92eafa1ffbf9348
Y/N,want,E25,EXPERIMENTAL,,3158,pork or a plum,b,html-keyboard-response,758,2.1.0,841466,accepts,a plum,pork,EXPERIMENTAL,wants,683735a1d92eafa1ffbf9348
N,want,D22,DOUBLE_CONTROL,,1553,caramel or a muffin,b,html-keyboard-response,763,2.1.0,845579,dislikes,a muffin,caramel,EXPERIMENTAL,,683735a1d92eafa1ffbf9348
N,want,D10,DOUBLE_CONTROL,,1918,an apple or a cranberry,n,html-keyboard-response,768,2.1.0,850058,dislikes,a cranberry,an apple,EXPERIMENTAL,,683735a1d92eafa1ffbf9348
N,does not mind,M48,SINGLE_CONTROL_MIND,,1777,an eclair,n,html-keyboard-response,774,2.1.0,854654,dislikes,,an eclair,EXPERIMENTAL,,683735a1d92eafa1ffbf9348
Y/N,want,E26,EXPERIMENTAL,,2032,pork or a donut,n,html-keyboard-response,779,2.1.0,859243,accepts,a donut,pork,EXPERIMENTAL,dislikes,683735a1d92eafa1ffbf9348
Y/N,want,E7,EXPERIMENTAL,,1726,a kebab or a biscuit,b,html-keyboard-response,784,2.1.0,863522,accepts,a biscuit,a kebab,EXPERIMENTAL,wants,683735a1d92eafa1ffbf9348
Y/N,want,E16,EXPERIMENTAL,,1972,a cherry or a meatloaf,b,html-keyboard-response,789,2.1.0,868051,wants,a meatloaf,a cherry,EXPERIMENTAL,accepts,683735a1d92eafa1ffbf9348
Y/N,want,E6,EXPERIMENTAL,,2804,a biscuit or a cranberry,b,html-keyboard-response,794,2.1.0,873416,wants,a cranberry,a biscuit,EXPERIMENTAL,dislikes,683735a1d92eafa1ffbf9348
Y/N,want,E10,EXPERIMENTAL,,1591,a lollipop or a meatball,b,html-keyboard-response,799,2.1.0,877556,wants,a meatball,a lollipop,EXPERIMENTAL,accepts,683735a1d92eafa1ffbf9348
Y/N,want,E11,EXPERIMENTAL,,1172,an apple or a meatball,b,html-keyboard-response,804,2.1.0,881288,dislikes,a meatball,an apple,EXPERIMENTAL,accepts,683735a1d92eafa1ffbf9348
Y,does not mind,M43,SINGLE_CONTROL_MIND,,2943,turkey,b,html-keyboard-response,810,2.1.0,887043,accepts,,turkey,EXPERIMENTAL,,683735a1d92eafa1ffbf9348
Y/N,want,E18,EXPERIMENTAL,,1315,an orange or a muffin,n,html-keyboard-response,815,2.1.0,890917,wants,a muffin,an orange,EXPERIMENTAL,dislikes,683735a1d92eafa1ffbf9348
Y,want,D15,DOUBLE_CONTROL,,2222,a cherry or a pear,b,html-keyboard-response,820,2.1.0,895691,wants,a pear,a cherry,EXPERIMENTAL,,683735a1d92eafa1ffbf9348
Y/N,want,E9,EXPERIMENTAL,,3556,an apple or a lollipop,n,html-keyboard-response,825,2.1.0,901810,dislikes,a lollipop,an apple,EXPERIMENTAL,wants,683735a1d92eafa1ffbf9348
N,want,S10,SINGLE_CONTROL,,1289,an apple,b,html-keyboard-response,830,2.1.0,905643,dislikes,,an apple,EXPERIMENTAL,,683735a1d92eafa1ffbf9348
Y,want,D0,DOUBLE_CONTROL,,2193,a chocolate or a brownie,b,html-keyboard-response,835,2.1.0,910398,wants,a brownie,a chocolate,EXPERIMENTAL,,683735a1d92eafa1ffbf9348
N,want,S40,SINGLE_CONTROL,,1970,a candy,n,html-keyboard-response,840,2.1.0,914924,dislikes,,a candy,EXPERIMENTAL,,683735a1d92eafa1ffbf9348
N,want,S28,SINGLE_CONTROL,,1476,a brownie,n,html-keyboard-response,845,2.1.0,918950,dislikes,,a brownie,EXPERIMENTAL,,683735a1d92eafa1ffbf9348
N,want,S14,SINGLE_CONTROL,,1300,a sausage,n,html-keyboard-response,850,2.1.0,922809,accepts,,a sausage,EXPERIMENTAL,,683735a1d92eafa1ffbf9348
Y/N,want,E8,EXPERIMENTAL,,2964,a kebab or a cranberry,b,html-keyboard-response,855,2.1.0,928308,accepts,a cranberry,a kebab,EXPERIMENTAL,dislikes,683735a1d92eafa1ffbf9348
N,want,S8,SINGLE_CONTROL,,1127,a kebab,b,html-keyboard-response,860,2.1.0,931987,accepts,,a kebab,EXPERIMENTAL,,683735a1d92eafa1ffbf9348
N,want,D17,DOUBLE_CONTROL,,1415,a meatloaf or a sausage,b,html-keyboard-response,865,2.1.0,935959,accepts,a sausage,a meatloaf,EXPERIMENTAL,,683735a1d92eafa1ffbf9348
N,does not mind,N50,DOUBLE_CONTROL_MIND,,2151,a lychee or an apple,b,html-keyboard-response,871,2.1.0,940928,dislikes,an apple,a lychee,EXPERIMENTAL,,683735a1d92eafa1ffbf9348
Y/N,want,E24,EXPERIMENTAL,,2922,a plum or a donut,n,html-keyboard-response,876,2.1.0,946384,wants,a donut,a plum,EXPERIMENTAL,dislikes,683735a1d92eafa1ffbf9348
N,does not mind,N54,DOUBLE_CONTROL_MIND,,5116,a crepe or a cake,n,html-keyboard-response,882,2.1.0,954328,dislikes,a cake,a crepe,EXPERIMENTAL,,683735a1d92eafa1ffbf9348
Y/N,want,E20,EXPERIMENTAL,,2254,a hotdog or a muffin,n,html-keyboard-response,887,2.1.0,959119,accepts,a muffin,a hotdog,EXPERIMENTAL,dislikes,683735a1d92eafa1ffbf9348
Y,does not mind,F4,SINGLE_CONTROL_MIND,Barbara-the-Urbanite does not mind eating a steak,5543,a steak,b,html-keyboard-response,5,2.1.0,835757,accepts,,a steak,PRACTICE,,5c0873675b32d500012e3f2c
Y,want,S0,SINGLE_CONTROL,Charles-the-Urbanite wants to eat a chocolate,4759,a chocolate,b,html-keyboard-response,11,2.1.0,845736,wants,,a chocolate,PRACTICE,,5c0873675b32d500012e3f2c
N,does not mind,E14,DOUBLE_CONTROL_MIND,Matthew-the-Urbanite is does not mind eating a cranberry or a grapefruit,4048,a cranberry or a grapefruit,b,html-keyboard-response,18,2.1.0,852687,dislikes,a grapefruit,a cranberry,PRACTICE,,5c0873675b32d500012e3f2c
Y,want,S5,SINGLE_CONTROL,Elizabeth-the-Urbanite wants to eat a cookie,2502,a cookie,b,html-keyboard-response,24,2.1.0,859867,wants,,a cookie,PRACTICE,,5c0873675b32d500012e3f2c
Y,want,D15,DOUBLE_CONTROL,Sandra-the-Urbanite wants to eat a lollipop or a biscuit,2695,a lollipop or a biscuit,b,html-keyboard-response,30,2.1.0,867264,wants,a biscuit,a lollipop,PRACTICE,,5c0873675b32d500012e3f2c
Y,want,D10,DOUBLE_CONTROL,Patricia-the-Urbanite wants to eat a biscuit or a cookie,1691,a biscuit or a cookie,b,html-keyboard-response,36,2.1.0,873688,wants,a cookie,a biscuit,PRACTICE,,5c0873675b32d500012e3f2c
N,want,S1,SINGLE_CONTROL,Michael-the-Urbanite wants to eat a strawberry,1928,a strawberry,n,html-keyboard-response,42,2.1.0,880219,dislikes,,a strawberry,PRACTICE,,5c0873675b32d500012e3f2c
Y,does not mind,F14,SINGLE_CONTROL_MIND,Matthew-the-Nomad does not mind eating a kebab,2193,a kebab,b,html-keyboard-response,49,2.1.0,887387,accepts,,a kebab,PRACTICE,,5c0873675b32d500012e3f2c
N,does not mind,E19,DOUBLE_CONTROL_MIND,Jennifer-the-Urbanite is does not mind eating an apple or a cranberry,1778,an apple or a cranberry,n,html-keyboard-response,56,2.1.0,894147,dislikes,a cranberry,an apple,PRACTICE,,5c0873675b32d500012e3f2c
Y,does not mind,E3,DOUBLE_CONTROL_MIND,Dorothy-the-Nomad is does not mind eating a steak or beef,1968,a steak or beef,b,html-keyboard-response,63,2.1.0,900356,accepts,beef,a steak,PRACTICE,,5c0873675b32d500012e3f2c
N,does not mind,F8,SINGLE_CONTROL_MIND,William-the-Urbanite does not mind eating a grapefruit,1481,a grapefruit,n,html-keyboard-response,70,2.1.0,906421,dislikes,,a grapefruit,PRACTICE,,5c0873675b32d500012e3f2c
N,want,S11,SINGLE_CONTROL,Sarah-the-Nomad wants to eat a biscuit,2644,a biscuit,n,html-keyboard-response,76,2.1.0,913103,dislikes,,a biscuit,PRACTICE,,5c0873675b32d500012e3f2c
N,want,D1,DOUBLE_CONTROL,Michael-the-Nomad wants to eat a chocolate or a brownie,1665,a chocolate or a brownie,n,html-keyboard-response,82,2.1.0,918855,dislikes,a brownie,a chocolate,PRACTICE,,5c0873675b32d500012e3f2c
N,does not mind,E9,DOUBLE_CONTROL_MIND,Margaret-the-Nomad is does not mind eating a cookie or a chocolate,1992,a cookie or a chocolate,n,html-keyboard-response,89,2.1.0,925090,dislikes,a chocolate,a cookie,PRACTICE,,5c0873675b32d500012e3f2c
N,want,D12,DOUBLE_CONTROL,Linda-the-Urbanite wants to eat a kebab or a burger,1389,a kebab or a burger,n,html-keyboard-response,95,2.1.0,930290,accepts,a burger,a kebab,PRACTICE,,5c0873675b32d500012e3f2c
N,want,S7,SINGLE_CONTROL,Daniel-the-Urbanite wants to eat a burger,1727,a burger,b,html-keyboard-response,101,2.1.0,937166,accepts,,a burger,PRACTICE,,5c0873675b32d500012e3f2c
Y,want,D0,DOUBLE_CONTROL,Charles-the-Nomad wants to eat a strawberry or a peach,1565,a strawberry or a peach,b,html-keyboard-response,107,2.1.0,945251,wants,a peach,a strawberry,PRACTICE,,5c0873675b32d500012e3f2c
Y,does not mind,E8,DOUBLE_CONTROL_MIND,William-the-Nomad is does not mind eating a burger or a steak,1668,a burger or a steak,b,html-keyboard-response,114,2.1.0,951143,accepts,a steak,a burger,PRACTICE,,5c0873675b32d500012e3f2c
Y,does not mind,E13,DOUBLE_CONTROL_MIND,Andrew-the-Urbanite is does not mind eating a kebab or a burger,1511,a kebab or a burger,b,html-keyboard-response,121,2.1.0,956765,accepts,a burger,a kebab,PRACTICE,,5c0873675b32d500012e3f2c
Y,does not mind,E18,DOUBLE_CONTROL_MIND,Anthony-the-Urbanite is does not mind eating a meatball or a kebab,1768,a meatball or a kebab,b,html-keyboard-response,128,2.1.0,962867,accepts,a kebab,a meatball,PRACTICE,,5c0873675b32d500012e3f2c
Y,does not mind,F19,SINGLE_CONTROL_MIND,Jennifer-the-Nomad does not mind eating a meatball,2171,a meatball,b,html-keyboard-response,135,2.1.0,968939,accepts,,a meatball,PRACTICE,,5c0873675b32d500012e3f2c
N,want,S12,SINGLE_CONTROL,Linda-the-Nomad wants to eat a kebab,2157,a kebab,b,html-keyboard-response,141,2.1.0,974789,accepts,,a kebab,PRACTICE,,5c0873675b32d500012e3f2c
N,want,S16,SINGLE_CONTROL,Ashley-the-Nomad wants to eat a lollipop,1559,a lollipop,n,html-keyboard-response,147,2.1.0,984086,dislikes,,a lollipop,PRACTICE,,5c0873675b32d500012e3f2c
N,does not mind,F3,SINGLE_CONTROL_MIND,Dorothy-the-Urbanite does not mind eating a strawberry,2257,a strawberry,n,html-keyboard-response,154,2.1.0,990186,dislikes,,a strawberry,PRACTICE,,5c0873675b32d500012e3f2c
N,does not mind,F13,SINGLE_CONTROL_MIND,Andrew-the-Nomad does not mind eating a biscuit,1335,a biscuit,n,html-keyboard-response,161,2.1.0,995700,dislikes,,a biscuit,PRACTICE,,5c0873675b32d500012e3f2c
N,want,S17,SINGLE_CONTROL,Susan-the-Nomad wants to eat a meatball,1919,a meatball,b,html-keyboard-response,167,2.1.0,1001247,accepts,,a meatball,PRACTICE,,5c0873675b32d500012e3f2c
N,want,D6,DOUBLE_CONTROL,Nancy-the-Nomad wants to eat a cookie or a chocolate,1378,a cookie or a chocolate,n,html-keyboard-response,173,2.1.0,1009460,dislikes,a chocolate,a cookie,PRACTICE,,5c0873675b32d500012e3f2c
N,does not mind,F18,SINGLE_CONTROL_MIND,Anthony-the-Nomad does not mind eating a lollipop,1387,a lollipop,n,html-keyboard-response,180,2.1.0,1014847,dislikes,,a lollipop,PRACTICE,,5c0873675b32d500012e3f2c
N,want,D17,DOUBLE_CONTROL,Susan-the-Urbanite wants to eat a meatball or a kebab,1698,a meatball or a kebab,n,html-keyboard-response,186,2.1.0,1020048,accepts,a kebab,a meatball,PRACTICE,,5c0873675b32d500012e3f2c
N,want,D7,DOUBLE_CONTROL,Daniel-the-Nomad wants to eat a burger or a steak,4966,a burger or a steak,b,html-keyboard-response,192,2.1.0,1029411,accepts,a steak,a burger,PRACTICE,,5c0873675b32d500012e3f2c
N,want,D16,DOUBLE_CONTROL,Ashley-the-Urbanite wants to eat an apple or a cranberry,1138,an apple or a cranberry,n,html-keyboard-response,198,2.1.0,1034730,dislikes,a cranberry,an apple,PRACTICE,,5c0873675b32d500012e3f2c
N,want,D11,DOUBLE_CONTROL,Sarah-the-Urbanite wants to eat a cranberry or a grapefruit,1290,a cranberry or a grapefruit,n,html-keyboard-response,204,2.1.0,1039430,dislikes,a grapefruit,a cranberry,PRACTICE,,5c0873675b32d500012e3f2c
N,want,S6,SINGLE_CONTROL,Nancy-the-Urbanite wants to eat a grapefruit,989,a grapefruit,n,html-keyboard-response,210,2.1.0,1043993,dislikes,,a grapefruit,PRACTICE,,5c0873675b32d500012e3f2c
N,want,D2,DOUBLE_CONTROL,Christopher-the-Nomad wants to eat a steak or beef,4048,a steak or beef,n,html-keyboard-response,216,2.1.0,1051478,accepts,beef,a steak,PRACTICE,,5c0873675b32d500012e3f2c
Y,want,S10,SINGLE_CONTROL,Patricia-the-Nomad wants to eat a cranberry,1955,a cranberry,b,html-keyboard-response,222,2.1.0,1059598,wants,,a cranberry,PRACTICE,,5c0873675b32d500012e3f2c
Y,want,S15,SINGLE_CONTROL,Sandra-the-Nomad wants to eat an apple,1909,an apple,b,html-keyboard-response,228,2.1.0,1067056,wants,,an apple,PRACTICE,,5c0873675b32d500012e3f2c
Y,want,D5,DOUBLE_CONTROL,Elizabeth-the-Nomad wants to eat a grapefruit or a strawberry,1678,a grapefruit or a strawberry,b,html-keyboard-response,234,2.1.0,1072444,wants,a strawberry,a grapefruit,PRACTICE,,5c0873675b32d500012e3f2c
N,does not mind,E4,DOUBLE_CONTROL_MIND,Barbara-the-Nomad is does not mind eating a chocolate or a brownie,2005,a chocolate or a brownie,n,html-keyboard-response,241,2.1.0,1078576,dislikes,a brownie,a chocolate,PRACTICE,,5c0873675b32d500012e3f2c
N,want,S2,SINGLE_CONTROL,Christopher-the-Urbanite wants to eat a steak,5117,a steak,n,html-keyboard-response,247,2.1.0,1087327,accepts,,a steak,PRACTICE,,5c0873675b32d500012e3f2c
Y,does not mind,F9,SINGLE_CONTROL_MIND,Margaret-the-Urbanite does not mind eating a burger,3238,a burger,b,html-keyboard-response,254,2.1.0,1095511,accepts,,a burger,PRACTICE,,5c0873675b32d500012e3f2c
Y,want,D21,DOUBLE_CONTROL,,1323,a mango or an orange,b,html-keyboard-response,261,2.1.0,1118143,wants,an orange,a mango,EXPERIMENTAL,,5c0873675b32d500012e3f2c
Y,does not mind,N53,DOUBLE_CONTROL_MIND,,2557,veal or a sausage,b,html-keyboard-response,267,2.1.0,1123498,accepts,a sausage,veal,EXPERIMENTAL,,5c0873675b32d500012e3f2c
Y/N,want,E16,EXPERIMENTAL,,3747,a cherry or a meatloaf,n,html-keyboard-response,272,2.1.0,1129827,wants,a meatloaf,a cherry,EXPERIMENTAL,accepts,5c0873675b32d500012e3f2c
Y/N,want,E3,EXPERIMENTAL,,4528,a grapefruit or a cookie,b,html-keyboard-response,277,2.1.0,1136887,dislikes,a cookie,a grapefruit,EXPERIMENTAL,wants,5c0873675b32d500012e3f2c
N,want,S1,SINGLE_CONTROL,,1184,a strawberry,n,html-keyboard-response,282,2.1.0,1140604,dislikes,,a strawberry,EXPERIMENTAL,,5c0873675b32d500012e3f2c
Y/N,want,E21,EXPERIMENTAL,,9073,caramel or a mango,n,html-keyboard-response,287,2.1.0,1152209,dislikes,a mango,caramel,EXPERIMENTAL,wants,5c0873675b32d500012e3f2c
N,want,D16,DOUBLE_CONTROL,,2741,a cake or a cupcake,n,html-keyboard-response,292,2.1.0,1157491,dislikes,a cupcake,a cake,EXPERIMENTAL,,5c0873675b32d500012e3f2c
N,want,S10,SINGLE_CONTROL,,1195,an apple,n,html-keyboard-response,297,2.1.0,1161224,dislikes,,an apple,EXPERIMENTAL,,5c0873675b32d500012e3f2c
N,want,S8,SINGLE_CONTROL,,1425,a kebab,n,html-keyboard-response,302,2.1.0,1165186,accepts,,a kebab,EXPERIMENTAL,,5c0873675b32d500012e3f2c
N,want,D10,DOUBLE_CONTROL,,1234,an apple or a cranberry,n,html-keyboard-response,307,2.1.0,1169020,dislikes,a cranberry,an apple,EXPERIMENTAL,,5c0873675b32d500012e3f2c
N,want,S29,SINGLE_CONTROL,,2259,beef,n,html-keyboard-response,312,2.1.0,1173836,accepts,,beef,EXPERIMENTAL,,5c0873675b32d500012e3f2c
N,does not mind,M42,SINGLE_CONTROL_MIND,,1918,a banana,n,html-keyboard-response,318,2.1.0,1178542,dislikes,,a banana,EXPERIMENTAL,,5c0873675b32d500012e3f2c
N,does not mind,M48,SINGLE_CONTROL_MIND,,2012,an eclair,n,html-keyboard-response,324,2.1.0,1183339,dislikes,,an eclair,EXPERIMENTAL,,5c0873675b32d500012e3f2c
N,want,S25,SINGLE_CONTROL,,1767,a donut,n,html-keyboard-response,329,2.1.0,1187630,dislikes,,a donut,EXPERIMENTAL,,5c0873675b32d500012e3f2c
N,want,D28,DOUBLE_CONTROL,,2453,a brownie or a donut,n,html-keyboard-response,334,2.1.0,1192615,dislikes,a donut,a brownie,EXPERIMENTAL,,5c0873675b32d500012e3f2c
Y/N,want,E0,EXPERIMENTAL,,5371,a chocolate or a strawberry,n,html-keyboard-response,339,2.1.0,1200587,wants,a strawberry,a chocolate,EXPERIMENTAL,dislikes,5c0873675b32d500012e3f2c
Y,want,S39,SINGLE_CONTROL,,1991,an apricot,b,html-keyboard-response,344,2.1.0,1205110,wants,,an apricot,EXPERIMENTAL,,5c0873675b32d500012e3f2c
N,want,D4,DOUBLE_CONTROL,,3096,a grapefruit or a strawberry,n,html-keyboard-response,349,2.1.0,1210756,dislikes,a strawberry,a grapefruit,EXPERIMENTAL,,5c0873675b32d500012e3f2c
Y/N,want,E27,EXPERIMENTAL,,3894,a brownie or a peach,n,html-keyboard-response,354,2.1.0,1217190,dislikes,a peach,a brownie,EXPERIMENTAL,wants,5c0873675b32d500012e3f2c
Y,want,S36,SINGLE_CONTROL,,1758,a papaya,b,html-keyboard-response,359,2.1.0,1221493,wants,,a papaya,EXPERIMENTAL,,5c0873675b32d500012e3f2c
N,does not mind,N56,DOUBLE_CONTROL_MIND,,2069,nougat or a muffin,n,html-keyboard-response,365,2.1.0,1226359,dislikes,a muffin,nougat,EXPERIMENTAL,,5c0873675b32d500012e3f2c
Y,does not mind,M49,SINGLE_CONTROL_MIND,,1712,duck,b,html-keyboard-response,371,2.1.0,1230937,accepts,,duck,EXPERIMENTAL,,5c0873675b32d500012e3f2c
Y/N,want,E19,EXPERIMENTAL,,2972,a hotdog or an orange,n,html-keyboard-response,376,2.1.0,1236491,accepts,an orange,a hotdog,EXPERIMENTAL,wants,5c0873675b32d500012e3f2c
N,want,S16,SINGLE_CONTROL,,6999,a cake,n,html-keyboard-response,381,2.1.0,1246031,dislikes,,a cake,EXPERIMENTAL,,5c0873675b32d500012e3f2c
N,does not mind,N54,DOUBLE_CONTROL_MIND,,1698,a crepe or a cake,n,html-keyboard-response,387,2.1.0,1250568,dislikes,a cake,a crepe,EXPERIMENTAL,,5c0873675b32d500012e3f2c
Y,does not mind,M43,SINGLE_CONTROL_MIND,,1266,turkey,b,html-keyboard-response,393,2.1.0,1254620,accepts,,turkey,EXPERIMENTAL,,5c0873675b32d500012e3f2c
N,does not mind,M44,SINGLE_CONTROL_MIND,,1378,a kiwi,n,html-keyboard-response,399,2.1.0,1258787,dislikes,,a kiwi,EXPERIMENTAL,,5c0873675b32d500012e3f2c
Y,does not mind,M45,SINGLE_CONTROL_MIND,,1638,salami,b,html-keyboard-response,405,2.1.0,1263222,accepts,,salami,EXPERIMENTAL,,5c0873675b32d500012e3f2c
N,want,D26,DOUBLE_CONTROL,,2482,pork or ribs,n,html-keyboard-response,410,2.1.0,1268244,accepts,ribs,pork,EXPERIMENTAL,,5c0873675b32d500012e3f2c
N,want,S32,SINGLE_CONTROL,,2046,chicken,n,html-keyboard-response,415,2.1.0,1272826,accepts,,chicken,EXPERIMENTAL,,5c0873675b32d500012e3f2c
N,want,D7,DOUBLE_CONTROL,,1461,a cranberry or a grapefruit,n,html-keyboard-response,420,2.1.0,1276820,dislikes,a grapefruit,a cranberry,EXPERIMENTAL,,5c0873675b32d500012e3f2c
N,want,S5,SINGLE_CONTROL,,1749,a burger,n,html-keyboard-response,425,2.1.0,1281106,accepts,,a burger,EXPERIMENTAL,,5c0873675b32d500012e3f2c
Y/N,want,E10,EXPERIMENTAL,,3359,a lollipop or a meatball,n,html-keyboard-response,430,2.1.0,1286996,wants,a meatball,a lollipop,EXPERIMENTAL,accepts,5c0873675b32d500012e3f2c
N,want,D14,DOUBLE_CONTROL,,1817,a sausage or a meatball,n,html-keyboard-response,435,2.1.0,1291339,accepts,a meatball,a sausage,EXPERIMENTAL,,5c0873675b32d500012e3f2c
N,want,S34,SINGLE_CONTROL,,1253,a pineapple,n,html-keyboard-response,440,2.1.0,1295114,dislikes,,a pineapple,EXPERIMENTAL,,5c0873675b32d500012e3f2c
Y,want,S15,SINGLE_CONTROL,,1225,a cherry,b,html-keyboard-response,445,2.1.0,1298868,wants,,a cherry,EXPERIMENTAL,,5c0873675b32d500012e3f2c
Y/N,want,E29,EXPERIMENTAL,,3307,a brownie or beef,n,html-keyboard-response,450,2.1.0,1304741,dislikes,beef,a brownie,EXPERIMENTAL,accepts,5c0873675b32d500012e3f2c
N,want,S40,SINGLE_CONTROL,,2985,a candy,n,html-keyboard-response,455,2.1.0,1310263,dislikes,,a candy,EXPERIMENTAL,,5c0873675b32d500012e3f2c
Y,does not mind,N51,DOUBLE_CONTROL_MIND,,1542,brisket or a meatball,b,html-keyboard-response,461,2.1.0,1314603,accepts,a meatball,brisket,EXPERIMENTAL,,5c0873675b32d500012e3f2c
N,want,S28,SINGLE_CONTROL,,1970,a brownie,n,html-keyboard-response,466,2.1.0,1319125,dislikes,,a brownie,EXPERIMENTAL,,5c0873675b32d500012e3f2c
N,want,D11,DOUBLE_CONTROL,,1785,a meatball or a kebab,n,html-keyboard-response,471,2.1.0,1323446,accepts,a kebab,a meatball,EXPERIMENTAL,,5c0873675b32d500012e3f2c
Y,want,S3,SINGLE_CONTROL,,1746,a cookie,b,html-keyboard-response,476,2.1.0,1327817,wants,,a cookie,EXPERIMENTAL,,5c0873675b32d500012e3f2c
Y/N,want,E20,EXPERIMENTAL,,2792,a hotdog or a muffin,n,html-keyboard-response,481,2.1.0,1333136,accepts,a muffin,a hotdog,EXPERIMENTAL,dislikes,5c0873675b32d500012e3f2c
Y,want,S6,SINGLE_CONTROL,,1999,a biscuit,b,html-keyboard-response,486,2.1.0,1337682,wants,,a biscuit,EXPERIMENTAL,,5c0873675b32d500012e3f2c
Y/N,want,E12,EXPERIMENTAL,,2485,a cupcake or a pear,n,html-keyboard-response,491,2.1.0,1342708,wants,a pear,a cupcake,EXPERIMENTAL,dislikes,5c0873675b32d500012e3f2c
N,want,S41,SINGLE_CONTROL,,1728,a roast,n,html-keyboard-response,496,2.1.0,1346987,accepts,,a roast,EXPERIMENTAL,,5c0873675b32d500012e3f2c
Y,want,S18,SINGLE_CONTROL,,1142,an orange,b,html-keyboard-response,501,2.1.0,1350648,wants,,an orange,EXPERIMENTAL,,5c0873675b32d500012e3f2c
Y,want,D12,DOUBLE_CONTROL,,2289,a cupcake or a lollipop,b,html-keyboard-response,506,2.1.0,1355471,wants,a lollipop,a cupcake,EXPERIMENTAL,,5c0873675b32d500012e3f2c
Y,want,D27,DOUBLE_CONTROL,,1281,a peach or a plum,b,html-keyboard-response,511,2.1.0,1359273,wants,a plum,a peach,EXPERIMENTAL,,5c0873675b32d500012e3f2c
Y/N,does not mind,Z60,EXPERIMENTAL,,5290,fudge or lamb,n,html-keyboard-response,517,2.1.0,1367353,dislikes,lamb,fudge,EXPERIMENTAL,accepts,5c0873675b32d500012e3f2c
Y,does not mind,N55,DOUBLE_CONTROL_MIND,,4734,pastrami or a meatloaf,b,html-keyboard-response,523,2.1.0,1374860,accepts,a meatloaf,pastrami,EXPERIMENTAL,,5c0873675b32d500012e3f2c
Y/N,does not mind,Z59,EXPERIMENTAL,,3752,salami or a kiwi,n,html-keyboard-response,529,2.1.0,1381404,accepts,a kiwi,salami,EXPERIMENTAL,dislikes,5c0873675b32d500012e3f2c
N,want,S17,SINGLE_CONTROL,,1047,a meatloaf,n,html-keyboard-response,534,2.1.0,1385037,accepts,,a meatloaf,EXPERIMENTAL,,5c0873675b32d500012e3f2c
N,want,S11,SINGLE_CONTROL,,1134,a meatball,n,html-keyboard-response,539,2.1.0,1388704,accepts,,a meatball,EXPERIMENTAL,,5c0873675b32d500012e3f2c
Y/N,want,E1,EXPERIMENTAL,,3581,a steak or a chocolate,n,html-keyboard-response,544,2.1.0,1394845,accepts,a chocolate,a steak,EXPERIMENTAL,wants,5c0873675b32d500012e3f2c
Y/N,want,E2,EXPERIMENTAL,,4950,a steak or a strawberry,n,html-keyboard-response,549,2.1.0,1402322,accepts,a strawberry,a steak,EXPERIMENTAL,dislikes,5c0873675b32d500012e3f2c
N,want,S37,SINGLE_CONTROL,,2235,a truffle,n,html-keyboard-response,554,2.1.0,1407100,dislikes,,a truffle,EXPERIMENTAL,,5c0873675b32d500012e3f2c
N,want,D19,DOUBLE_CONTROL,,1806,a muffin or a cake,n,html-keyboard-response,559,2.1.0,1411436,dislikes,a cake,a muffin,EXPERIMENTAL,,5c0873675b32d500012e3f2c
N,want,D25,DOUBLE_CONTROL,,1602,a donut or caramel,n,html-keyboard-response,564,2.1.0,1415581,dislikes,caramel,a donut,EXPERIMENTAL,,5c0873675b32d500012e3f2c
Y/N,want,E4,EXPERIMENTAL,,4329,a cookie or a burger,n,html-keyboard-response,569,2.1.0,1422452,wants,a burger,a cookie,EXPERIMENTAL,accepts,5c0873675b32d500012e3f2c
Y/N,want,E9,EXPERIMENTAL,,4686,an apple or a lollipop,n,html-keyboard-response,574,2.1.0,1429666,dislikes,a lollipop,an apple,EXPERIMENTAL,wants,5c0873675b32d500012e3f2c
N,want,D2,DOUBLE_CONTROL,,1772,a steak or beef,n,html-keyboard-response,580,2.1.0,1498352,accepts,beef,a steak,EXPERIMENTAL,,5c0873675b32d500012e3f2c
Y/N,want,E24,EXPERIMENTAL,,3830,a plum or a donut,n,html-keyboard-response,585,2.1.0,1504710,wants,a donut,a plum,EXPERIMENTAL,dislikes,5c0873675b32d500012e3f2c
Y,want,S9,SINGLE_CONTROL,,1307,a lollipop,b,html-keyboard-response,590,2.1.0,1508556,wants,,a lollipop,EXPERIMENTAL,,5c0873675b32d500012e3f2c
Y/N,want,E23,EXPERIMENTAL,,3175,caramel or ribs,n,html-keyboard-response,595,2.1.0,1514270,dislikes,ribs,caramel,EXPERIMENTAL,accepts,5c0873675b32d500012e3f2c
Y,want,S30,SINGLE_CONTROL,,1701,a popsicle,b,html-keyboard-response,600,2.1.0,1518563,wants,,a popsicle,EXPERIMENTAL,,5c0873675b32d500012e3f2c
N,want,D23,DOUBLE_CONTROL,,1745,ribs or a hotdog,n,html-keyboard-response,605,2.1.0,1522867,accepts,a hotdog,ribs,EXPERIMENTAL,,5c0873675b32d500012e3f2c
N,want,D8,DOUBLE_CONTROL,,1881,a kebab or a burger,n,html-keyboard-response,610,2.1.0,1527273,accepts,a burger,a kebab,EXPERIMENTAL,,5c0873675b32d500012e3f2c
Y/N,want,E26,EXPERIMENTAL,,2014,pork or a donut,n,html-keyboard-response,615,2.1.0,1531866,accepts,a donut,pork,EXPERIMENTAL,dislikes,5c0873675b32d500012e3f2c
Y,want,S33,SINGLE_CONTROL,,2233,a marshmallow,b,html-keyboard-response,620,2.1.0,1536655,wants,,a marshmallow,EXPERIMENTAL,,5c0873675b32d500012e3f2c
N,does not mind,N50,DOUBLE_CONTROL_MIND,,1603,a lychee or an apple,n,html-keyboard-response,626,2.1.0,1541067,dislikes,an apple,a lychee,EXPERIMENTAL,,5c0873675b32d500012e3f2c
Y/N,want,E6,EXPERIMENTAL,,2837,a biscuit or a cranberry,n,html-keyboard-response,631,2.1.0,1546504,wants,a cranberry,a biscuit,EXPERIMENTAL,dislikes,5c0873675b32d500012e3f2c
Y/N,want,E17,EXPERIMENTAL,,2413,a cake or a meatloaf,n,html-keyboard-response,636,2.1.0,1551560,dislikes,a meatloaf,a cake,EXPERIMENTAL,accepts,5c0873675b32d500012e3f2c
Y/N,does not mind,Z61,EXPERIMENTAL,,2337,duck or an eclair,n,html-keyboard-response,642,2.1.0,1556677,accepts,an eclair,duck,EXPERIMENTAL,dislikes,5c0873675b32d500012e3f2c
N,want,S22,SINGLE_CONTROL,,1909,caramel,n,html-keyboard-response,647,2.1.0,1561123,dislikes,,caramel,EXPERIMENTAL,,5c0873675b32d500012e3f2c
Y,want,D18,DOUBLE_CONTROL,,1825,an orange or a cherry,b,html-keyboard-response,652,2.1.0,1565474,wants,a cherry,an orange,EXPERIMENTAL,,5c0873675b32d500012e3f2c
Y,want,D24,DOUBLE_CONTROL,,1311,a plum or a mango,b,html-keyboard-response,657,2.1.0,1569304,wants,a mango,a plum,EXPERIMENTAL,,5c0873675b32d500012e3f2c
Y,want,D0,DOUBLE_CONTROL,,1419,a chocolate or a brownie,b,html-keyboard-response,662,2.1.0,1573256,wants,a brownie,a chocolate,EXPERIMENTAL,,5c0873675b32d500012e3f2c
N,want,S26,SINGLE_CONTROL,,1591,pork,n,html-keyboard-response,667,2.1.0,1577375,accepts,,pork,EXPERIMENTAL,,5c0873675b32d500012e3f2c
Y/N,want,E7,EXPERIMENTAL,,3693,a kebab or a biscuit,n,html-keyboard-response,672,2.1.0,1583597,accepts,a biscuit,a kebab,EXPERIMENTAL,wants,5c0873675b32d500012e3f2c
Y,want,D15,DOUBLE_CONTROL,,1182,a cherry or a pear,b,html-keyboard-response,677,2.1.0,1587298,wants,a pear,a cherry,EXPERIMENTAL,,5c0873675b32d500012e3f2c
N,want,S14,SINGLE_CONTROL,,1424,a sausage,n,html-keyboard-response,682,2.1.0,1591329,accepts,,a sausage,EXPERIMENTAL,,5c0873675b32d500012e3f2c
N,does not mind,N52,DOUBLE_CONTROL_MIND,,1151,a nectarine or a pear,n,html-keyboard-response,688,2.1.0,1595273,dislikes,a pear,a nectarine,EXPERIMENTAL,,5c0873675b32d500012e3f2c
Y,want,S0,SINGLE_CONTROL,,1119,a chocolate,b,html-keyboard-response,693,2.1.0,1598940,wants,,a chocolate,EXPERIMENTAL,,5c0873675b32d500012e3f2c
N,want,S23,SINGLE_CONTROL,,1626,ribs,n,html-keyboard-response,698,2.1.0,1603104,accepts,,ribs,EXPERIMENTAL,,5c0873675b32d500012e3f2c
Y,does not mind,M47,SINGLE_CONTROL_MIND,,2774,lamb,b,html-keyboard-response,704,2.1.0,1608656,accepts,,lamb,EXPERIMENTAL,,5c0873675b32d500012e3f2c
Y,want,D9,DOUBLE_CONTROL,,1627,a lollipop or a biscuit,b,html-keyboard-response,709,2.1.0,1612829,wants,a biscuit,a lollipop,EXPERIMENTAL,,5c0873675b32d500012e3f2c
N,want,S13,SINGLE_CONTROL,,1018,a pear,n,html-keyboard-response,714,2.1.0,1616398,dislikes,,a pear,EXPERIMENTAL,,5c0873675b32d500012e3f2c
Y,want,D3,DOUBLE_CONTROL,,1570,a cookie or a chocolate,b,html-keyboard-response,719,2.1.0,1620518,wants,a chocolate,a cookie,EXPERIMENTAL,,5c0873675b32d500012e3f2c
Y/N,does not mind,Z58,EXPERIMENTAL,,2782,a banana or turkey,n,html-keyboard-response,725,2.1.0,1626081,dislikes,turkey,a banana,EXPERIMENTAL,accepts,5c0873675b32d500012e3f2c
Y,want,S21,SINGLE_CONTROL,,991,a mango,b,html-keyboard-response,730,2.1.0,1629602,wants,,a mango,EXPERIMENTAL,,5c0873675b32d500012e3f2c
Y,does not mind,N57,DOUBLE_CONTROL_MIND,,3014,mutton or a hotdog,b,html-keyboard-response,736,2.1.0,1635409,accepts,a hotdog,mutton,EXPERIMENTAL,,5c0873675b32d500012e3f2c
N,want,D22,DOUBLE_CONTROL,,1623,caramel or a muffin,n,html-keyboard-response,741,2.1.0,1639576,dislikes,a muffin,caramel,EXPERIMENTAL,,5c0873675b32d500012e3f2c
N,want,S19,SINGLE_CONTROL,,1588,a muffin,n,html-keyboard-response,746,2.1.0,1643768,dislikes,,a muffin,EXPERIMENTAL,,5c0873675b32d500012e3f2c
Y/N,want,E25,EXPERIMENTAL,,4341,pork or a plum,n,html-keyboard-response,751,2.1.0,1650646,accepts,a plum,pork,EXPERIMENTAL,wants,5c0873675b32d500012e3f2c
Y,want,D6,DOUBLE_CONTROL,,995,a biscuit or a cookie,b,html-keyboard-response,756,2.1.0,1654188,wants,a cookie,a biscuit,EXPERIMENTAL,,5c0873675b32d500012e3f2c
Y,want,S24,SINGLE_CONTROL,,1030,a plum,b,html-keyboard-response,761,2.1.0,1657739,wants,,a plum,EXPERIMENTAL,,5c0873675b32d500012e3f2c
N,want,S31,SINGLE_CONTROL,,1012,a blueberry,n,html-keyboard-response,766,2.1.0,1661287,dislikes,,a blueberry,EXPERIMENTAL,,5c0873675b32d500012e3f2c
N,want,D20,DOUBLE_CONTROL,,2030,a hotdog or a meatloaf,n,html-keyboard-response,771,2.1.0,1665848,accepts,a meatloaf,a hotdog,EXPERIMENTAL,,5c0873675b32d500012e3f2c
N,want,S20,SINGLE_CONTROL,,1473,a hotdog,n,html-keyboard-response,776,2.1.0,1669851,accepts,,a hotdog,EXPERIMENTAL,,5c0873675b32d500012e3f2c
N,want,D17,DOUBLE_CONTROL,,1322,a meatloaf or a sausage,n,html-keyboard-response,781,2.1.0,1673715,accepts,a sausage,a meatloaf,EXPERIMENTAL,,5c0873675b32d500012e3f2c
N,want,S7,SINGLE_CONTROL,,1326,a cranberry,n,html-keyboard-response,786,2.1.0,1677577,dislikes,,a cranberry,EXPERIMENTAL,,5c0873675b32d500012e3f2c
N,want,D1,DOUBLE_CONTROL,,3514,a strawberry or a peach,b,html-keyboard-response,791,2.1.0,1683620,dislikes,a peach,a strawberry,EXPERIMENTAL,,5c0873675b32d500012e3f2c
Y/N,want,E18,EXPERIMENTAL,,3709,an orange or a muffin,n,html-keyboard-response,796,2.1.0,1689988,wants,a muffin,an orange,EXPERIMENTAL,dislikes,5c0873675b32d500012e3f2c
Y/N,want,E13,EXPERIMENTAL,,3183,a sausage or a cupcake,n,html-keyboard-response,801,2.1.0,1695714,accepts,a cupcake,a sausage,EXPERIMENTAL,wants,5c0873675b32d500012e3f2c
N,want,S4,SINGLE_CONTROL,,978,a grapefruit,n,html-keyboard-response,806,2.1.0,1699290,dislikes,,a grapefruit,EXPERIMENTAL,,5c0873675b32d500012e3f2c
N,want,D29,DOUBLE_CONTROL,,1449,beef or pork,n,html-keyboard-response,811,2.1.0,1703366,accepts,pork,beef,EXPERIMENTAL,,5c0873675b32d500012e3f2c
Y/N,want,E22,EXPERIMENTAL,,1764,a mango or ribs,n,html-keyboard-response,816,2.1.0,1707716,wants,ribs,a mango,EXPERIMENTAL,accepts,5c0873675b32d500012e3f2c
N,does not mind,M46,SINGLE_CONTROL_MIND,,4347,fudge,b,html-keyboard-response,822,2.1.0,1714869,dislikes,,fudge,EXPERIMENTAL,,5c0873675b32d500012e3f2c
Y,want,S12,SINGLE_CONTROL,,1090,a cupcake,b,html-keyboard-response,827,2.1.0,1718489,wants,,a cupcake,EXPERIMENTAL,,5c0873675b32d500012e3f2c
N,want,S35,SINGLE_CONTROL,,1168,a ham,b,html-keyboard-response,832,2.1.0,1722184,accepts,,a ham,EXPERIMENTAL,,5c0873675b32d500012e3f2c
Y/N,want,E8,EXPERIMENTAL,,2822,a kebab or a cranberry,n,html-keyboard-response,837,2.1.0,1727612,accepts,a cranberry,a kebab,EXPERIMENTAL,dislikes,5c0873675b32d500012e3f2c
Y,want,S27,SINGLE_CONTROL,,1049,a peach,b,html-keyboard-response,842,2.1.0,1731181,wants,,a peach,EXPERIMENTAL,,5c0873675b32d500012e3f2c
Y/N,want,E14,EXPERIMENTAL,,2321,a sausage or a pear,n,html-keyboard-response,847,2.1.0,1736031,accepts,a pear,a sausage,EXPERIMENTAL,dislikes,5c0873675b32d500012e3f2c
N,want,S2,SINGLE_CONTROL,,3325,a steak,n,html-keyboard-response,852,2.1.0,1741886,accepts,,a steak,EXPERIMENTAL,,5c0873675b32d500012e3f2c
Y/N,want,E15,EXPERIMENTAL,,1476,a cake or a cherry,n,html-keyboard-response,857,2.1.0,1745960,dislikes,a cherry,a cake,EXPERIMENTAL,wants,5c0873675b32d500012e3f2c
N,want,D13,DOUBLE_CONTROL,,2528,a pear or an apple,b,html-keyboard-response,862,2.1.0,1751016,dislikes,an apple,a pear,EXPERIMENTAL,,5c0873675b32d500012e3f2c
Y/N,want,E11,EXPERIMENTAL,,2027,an apple or a meatball,n,html-keyboard-response,867,2.1.0,1755593,dislikes,a meatball,an apple,EXPERIMENTAL,accepts,5c0873675b32d500012e3f2c
Y/N,want,E5,EXPERIMENTAL,,2881,a grapefruit or a burger,n,html-keyboard-response,872,2.1.0,1761006,dislikes,a burger,a grapefruit,EXPERIMENTAL,accepts,5c0873675b32d500012e3f2c
N,want,S38,SINGLE_CONTROL,,1564,bacon,n,html-keyboard-response,877,2.1.0,1765114,accepts,,bacon,EXPERIMENTAL,,5c0873675b32d500012e3f2c
Y/N,want,E28,EXPERIMENTAL,,1407,a peach or beef,n,html-keyboard-response,882,2.1.0,1769073,wants,beef,a peach,EXPERIMENTAL,accepts,5c0873675b32d500012e3f2c
N,want,D5,DOUBLE_CONTROL,,3584,a burger or a steak,n,html-keyboard-response,887,2.1.0,1775192,accepts,a steak,a burger,EXPERIMENTAL,,5c0873675b32d500012e3f2c
N,does not mind,E4,DOUBLE_CONTROL_MIND,Barbara-the-Nomad is does not mind eating a chocolate or a brownie,18360,a chocolate or a brownie,b,html-keyboard-response,5,2.1.0,288657,dislikes,a brownie,a chocolate,PRACTICE,,5ea32a0ea7b59a0c92e82ac8
N,want,S12,SINGLE_CONTROL,Linda-the-Nomad wants to eat a kebab,5624,a kebab,b,html-keyboard-response,11,2.1.0,301080,accepts,,a kebab,PRACTICE,,5ea32a0ea7b59a0c92e82ac8
Y,want,D5,DOUBLE_CONTROL,Elizabeth-the-Nomad wants to eat a grapefruit or a strawberry,5700,a grapefruit or a strawberry,n,html-keyboard-response,17,2.1.0,311839,wants,a strawberry,a grapefruit,PRACTICE,,5ea32a0ea7b59a0c92e82ac8
N,want,S17,SINGLE_CONTROL,Susan-the-Nomad wants to eat a meatball,7400,a meatball,n,html-keyboard-response,23,2.1.0,347663,accepts,,a meatball,PRACTICE,,5ea32a0ea7b59a0c92e82ac8
Y,does not mind,E8,DOUBLE_CONTROL_MIND,William-the-Nomad is does not mind eating a burger or a steak,5983,a burger or a steak,n,html-keyboard-response,30,2.1.0,360017,accepts,a steak,a burger,PRACTICE,,5ea32a0ea7b59a0c92e82ac8
N,does not mind,F8,SINGLE_CONTROL_MIND,William-the-Urbanite does not mind eating a grapefruit,4104,a grapefruit,b,html-keyboard-response,37,2.1.0,368847,dislikes,,a grapefruit,PRACTICE,,5ea32a0ea7b59a0c92e82ac8
N,want,D2,DOUBLE_CONTROL,Christopher-the-Nomad wants to eat a steak or beef,6416,a steak or beef,b,html-keyboard-response,43,2.1.0,379757,accepts,beef,a steak,PRACTICE,,5ea32a0ea7b59a0c92e82ac8
Y,does not mind,E18,DOUBLE_CONTROL_MIND,Anthony-the-Urbanite is does not mind eating a meatball or a kebab,5278,a meatball or a kebab,b,html-keyboard-response,50,2.1.0,390729,accepts,a kebab,a meatball,PRACTICE,,5ea32a0ea7b59a0c92e82ac8
N,want,S6,SINGLE_CONTROL,Nancy-the-Urbanite wants to eat a grapefruit,7080,a grapefruit,b,html-keyboard-response,56,2.1.0,401774,dislikes,,a grapefruit,PRACTICE,,5ea32a0ea7b59a0c92e82ac8
N,does not mind,F3,SINGLE_CONTROL_MIND,Dorothy-the-Urbanite does not mind eating a strawberry,3051,a strawberry,n,html-keyboard-response,63,2.1.0,412766,dislikes,,a strawberry,PRACTICE,,5ea32a0ea7b59a0c92e82ac8
N,want,D11,DOUBLE_CONTROL,Sarah-the-Urbanite wants to eat a cranberry or a grapefruit,4705,a cranberry or a grapefruit,n,html-keyboard-response,69,2.1.0,428751,dislikes,a grapefruit,a cranberry,PRACTICE,,5ea32a0ea7b59a0c92e82ac8
N,does not mind,F18,SINGLE_CONTROL_MIND,Anthony-the-Nomad does not mind eating a lollipop,7187,a lollipop,b,html-keyboard-response,76,2.1.0,440767,dislikes,,a lollipop,PRACTICE,,5ea32a0ea7b59a0c92e82ac8
N,want,S16,SINGLE_CONTROL,Ashley-the-Nomad wants to eat a lollipop,22004,a lollipop,b,html-keyboard-response,82,2.1.0,479303,dislikes,,a lollipop,PRACTICE,,5ea32a0ea7b59a0c92e82ac8
Y,want,S10,SINGLE_CONTROL,Patricia-the-Nomad wants to eat a cranberry,3090,a cranberry,b,html-keyboard-response,88,2.1.0,486493,wants,,a cranberry,PRACTICE,,5ea32a0ea7b59a0c92e82ac8
Y,does not mind,E13,DOUBLE_CONTROL_MIND,Andrew-the-Urbanite is does not mind eating a kebab or a burger,6613,a kebab or a burger,b,html-keyboard-response,95,2.1.0,497326,accepts,a burger,a kebab,PRACTICE,,5ea32a0ea7b59a0c92e82ac8
Y,does not mind,F14,SINGLE_CONTROL_MIND,Matthew-the-Nomad does not mind eating a kebab,3880,a kebab,b,html-keyboard-response,102,2.1.0,507524,accepts,,a kebab,PRACTICE,,5ea32a0ea7b59a0c92e82ac8
Y,want,D15,DOUBLE_CONTROL,Sandra-the-Urbanite wants to eat a lollipop or a biscuit,1893,a lollipop or a biscuit,b,html-keyboard-response,108,2.1.0,513042,wants,a biscuit,a lollipop,PRACTICE,,5ea32a0ea7b59a0c92e82ac8
N,want,D1,DOUBLE_CONTROL,Michael-the-Nomad wants to eat a chocolate or a brownie,1589,a chocolate or a brownie,n,html-keyboard-response,114,2.1.0,518520,dislikes,a brownie,a chocolate,PRACTICE,,5ea32a0ea7b59a0c92e82ac8
Y,want,D10,DOUBLE_CONTROL,Patricia-the-Urbanite wants to eat a biscuit or a cookie,12030,a biscuit or a cookie,b,html-keyboard-response,120,2.1.0,534257,wants,a cookie,a biscuit,PRACTICE,,5ea32a0ea7b59a0c92e82ac8
N,want,S7,SINGLE_CONTROL,Daniel-the-Urbanite wants to eat a burger,4006,a burger,n,html-keyboard-response,126,2.1.0,544560,accepts,,a burger,PRACTICE,,5ea32a0ea7b59a0c92e82ac8
N,want,S2,SINGLE_CONTROL,Christopher-the-Urbanite wants to eat a steak,971,a steak,n,html-keyboard-response,132,2.1.0,550470,accepts,,a steak,PRACTICE,,5ea32a0ea7b59a0c92e82ac8
N,does not mind,E9,DOUBLE_CONTROL_MIND,Margaret-the-Nomad is does not mind eating a cookie or a chocolate,5991,a cookie or a chocolate,n,html-keyboard-response,139,2.1.0,560258,dislikes,a chocolate,a cookie,PRACTICE,,5ea32a0ea7b59a0c92e82ac8
N,want,D6,DOUBLE_CONTROL,Nancy-the-Nomad wants to eat a cookie or a chocolate,2491,a cookie or a chocolate,n,html-keyboard-response,145,2.1.0,566524,dislikes,a chocolate,a cookie,PRACTICE,,5ea32a0ea7b59a0c92e82ac8
Y,want,S0,SINGLE_CONTROL,Charles-the-Urbanite wants to eat a chocolate,2865,a chocolate,b,html-keyboard-response,151,2.1.0,572987,wants,,a chocolate,PRACTICE,,5ea32a0ea7b59a0c92e82ac8
N,want,S11,SINGLE_CONTROL,Sarah-the-Nomad wants to eat a biscuit,4829,a biscuit,n,html-keyboard-response,157,2.1.0,581497,dislikes,,a biscuit,PRACTICE,,5ea32a0ea7b59a0c92e82ac8
Y,want,S5,SINGLE_CONTROL,Elizabeth-the-Urbanite wants to eat a cookie,4443,a cookie,b,html-keyboard-response,163,2.1.0,589630,wants,,a cookie,PRACTICE,,5ea32a0ea7b59a0c92e82ac8
N,want,D16,DOUBLE_CONTROL,Ashley-the-Urbanite wants to eat an apple or a cranberry,1741,an apple or a cranberry,n,html-keyboard-response,169,2.1.0,595016,dislikes,a cranberry,an apple,PRACTICE,,5ea32a0ea7b59a0c92e82ac8
N,want,D12,DOUBLE_CONTROL,Linda-the-Urbanite wants to eat a kebab or a burger,1528,a kebab or a burger,n,html-keyboard-response,175,2.1.0,600105,accepts,a burger,a kebab,PRACTICE,,5ea32a0ea7b59a0c92e82ac8
Y,does not mind,F4,SINGLE_CONTROL_MIND,Barbara-the-Urbanite does not mind eating a steak,5153,a steak,n,html-keyboard-response,182,2.1.0,609196,accepts,,a steak,PRACTICE,,5ea32a0ea7b59a0c92e82ac8
Y,does not mind,E3,DOUBLE_CONTROL_MIND,Dorothy-the-Nomad is does not mind eating a steak or beef,3635,a steak or beef,b,html-keyboard-response,189,2.1.0,618209,accepts,beef,a steak,PRACTICE,,5ea32a0ea7b59a0c92e82ac8
N,want,S1,SINGLE_CONTROL,Michael-the-Urbanite wants to eat a strawberry,1579,a strawberry,b,html-keyboard-response,195,2.1.0,623699,dislikes,,a strawberry,PRACTICE,,5ea32a0ea7b59a0c92e82ac8
N,does not mind,F13,SINGLE_CONTROL_MIND,Andrew-the-Nomad does not mind eating a biscuit,2290,a biscuit,b,html-keyboard-response,202,2.1.0,631010,dislikes,,a biscuit,PRACTICE,,5ea32a0ea7b59a0c92e82ac8
Y,want,D0,DOUBLE_CONTROL,Charles-the-Nomad wants to eat a strawberry or a peach,3691,a strawberry or a peach,b,html-keyboard-response,208,2.1.0,638259,wants,a peach,a strawberry,PRACTICE,,5ea32a0ea7b59a0c92e82ac8
N,want,D7,DOUBLE_CONTROL,Daniel-the-Nomad wants to eat a burger or a steak,8746,a burger or a steak,b,html-keyboard-response,214,2.1.0,650551,accepts,a steak,a burger,PRACTICE,,5ea32a0ea7b59a0c92e82ac8
N,does not mind,E14,DOUBLE_CONTROL_MIND,Matthew-the-Urbanite is does not mind eating a cranberry or a grapefruit,3164,a cranberry or a grapefruit,b,html-keyboard-response,221,2.1.0,657401,dislikes,a grapefruit,a cranberry,PRACTICE,,5ea32a0ea7b59a0c92e82ac8
Y,does not mind,F9,SINGLE_CONTROL_MIND,Margaret-the-Urbanite does not mind eating a burger,4479,a burger,b,html-keyboard-response,228,2.1.0,667182,accepts,,a burger,PRACTICE,,5ea32a0ea7b59a0c92e82ac8
Y,want,S15,SINGLE_CONTROL,Sandra-the-Nomad wants to eat an apple,3008,an apple,b,html-keyboard-response,234,2.1.0,674346,wants,,an apple,PRACTICE,,5ea32a0ea7b59a0c92e82ac8
Y,does not mind,F19,SINGLE_CONTROL_MIND,Jennifer-the-Nomad does not mind eating a meatball,5109,a meatball,n,html-keyboard-response,241,2.1.0,683216,accepts,,a meatball,PRACTICE,,5ea32a0ea7b59a0c92e82ac8
N,want,D17,DOUBLE_CONTROL,Susan-the-Urbanite wants to eat a meatball or a kebab,4694,a meatball or a kebab,b,html-keyboard-response,247,2.1.0,696706,accepts,a kebab,a meatball,PRACTICE,,5ea32a0ea7b59a0c92e82ac8
N,does not mind,E19,DOUBLE_CONTROL_MIND,Jennifer-the-Urbanite is does not mind eating an apple or a cranberry,1883,an apple or a cranberry,n,html-keyboard-response,254,2.1.0,702372,dislikes,a cranberry,an apple,PRACTICE,,5ea32a0ea7b59a0c92e82ac8
Y/N,want,E18,EXPERIMENTAL,,3796,an orange or a muffin,b,html-keyboard-response,261,2.1.0,741964,wants,a muffin,an orange,EXPERIMENTAL,dislikes,5ea32a0ea7b59a0c92e82ac8
Y,want,S33,SINGLE_CONTROL,,3500,a marshmallow,b,html-keyboard-response,266,2.1.0,747998,wants,,a marshmallow,EXPERIMENTAL,,5ea32a0ea7b59a0c92e82ac8
Y,want,D21,DOUBLE_CONTROL,,1530,a mango or an orange,b,html-keyboard-response,271,2.1.0,752061,wants,an orange,a mango,EXPERIMENTAL,,5ea32a0ea7b59a0c92e82ac8
Y/N,does not mind,Z58,EXPERIMENTAL,,3373,a banana or turkey,n,html-keyboard-response,277,2.1.0,758232,dislikes,turkey,a banana,EXPERIMENTAL,accepts,5ea32a0ea7b59a0c92e82ac8
N,want,D14,DOUBLE_CONTROL,,5349,a sausage or a meatball,n,html-keyboard-response,282,2.1.0,766105,accepts,a meatball,a sausage,EXPERIMENTAL,,5ea32a0ea7b59a0c92e82ac8
N,want,S35,SINGLE_CONTROL,,2540,a ham,n,html-keyboard-response,287,2.1.0,771184,accepts,,a ham,EXPERIMENTAL,,5ea32a0ea7b59a0c92e82ac8
Y/N,want,E3,EXPERIMENTAL,,5838,a grapefruit or a cookie,n,html-keyboard-response,292,2.1.0,779566,dislikes,a cookie,a grapefruit,EXPERIMENTAL,wants,5ea32a0ea7b59a0c92e82ac8
N,want,S2,SINGLE_CONTROL,,6033,a steak,n,html-keyboard-response,297,2.1.0,788144,accepts,,a steak,EXPERIMENTAL,,5ea32a0ea7b59a0c92e82ac8
Y,want,S3,SINGLE_CONTROL,,8261,a cookie,b,html-keyboard-response,302,2.1.0,798955,wants,,a cookie,EXPERIMENTAL,,5ea32a0ea7b59a0c92e82ac8
N,want,S25,SINGLE_CONTROL,,2181,a donut,n,html-keyboard-response,307,2.1.0,803678,dislikes,,a donut,EXPERIMENTAL,,5ea32a0ea7b59a0c92e82ac8
N,want,S29,SINGLE_CONTROL,,2294,beef,n,html-keyboard-response,312,2.1.0,808493,accepts,,beef,EXPERIMENTAL,,5ea32a0ea7b59a0c92e82ac8
Y,want,S39,SINGLE_CONTROL,,4331,an apricot,b,html-keyboard-response,317,2.1.0,815362,wants,,an apricot,EXPERIMENTAL,,5ea32a0ea7b59a0c92e82ac8
Y,want,D27,DOUBLE_CONTROL,,1503,a peach or a plum,b,html-keyboard-response,322,2.1.0,819386,wants,a plum,a peach,EXPERIMENTAL,,5ea32a0ea7b59a0c92e82ac8
N,does not mind,M42,SINGLE_CONTROL_MIND,,1911,a banana,n,html-keyboard-response,328,2.1.0,824099,dislikes,,a banana,EXPERIMENTAL,,5ea32a0ea7b59a0c92e82ac8
N,want,D4,DOUBLE_CONTROL,,3296,a grapefruit or a strawberry,n,html-keyboard-response,333,2.1.0,829928,dislikes,a strawberry,a grapefruit,EXPERIMENTAL,,5ea32a0ea7b59a0c92e82ac8
Y,does not mind,N57,DOUBLE_CONTROL_MIND,,3937,mutton or a hotdog,b,html-keyboard-response,339,2.1.0,836654,accepts,a hotdog,mutton,EXPERIMENTAL,,5ea32a0ea7b59a0c92e82ac8
Y,want,D24,DOUBLE_CONTROL,,3231,a plum or a mango,b,html-keyboard-response,344,2.1.0,842405,wants,a mango,a plum,EXPERIMENTAL,,5ea32a0ea7b59a0c92e82ac8
Y/N,does not mind,Z59,EXPERIMENTAL,,6053,salami or a kiwi,b,html-keyboard-response,350,2.1.0,851252,accepts,a kiwi,salami,EXPERIMENTAL,dislikes,5ea32a0ea7b59a0c92e82ac8
N,want,S5,SINGLE_CONTROL,,3991,a burger,n,html-keyboard-response,355,2.1.0,857780,accepts,,a burger,EXPERIMENTAL,,5ea32a0ea7b59a0c92e82ac8
Y/N,want,E23,EXPERIMENTAL,,2304,caramel or ribs,n,html-keyboard-response,360,2.1.0,862629,dislikes,ribs,caramel,EXPERIMENTAL,accepts,5ea32a0ea7b59a0c92e82ac8
Y/N,want,E1,EXPERIMENTAL,,9914,a steak or a chocolate,b,html-keyboard-response,365,2.1.0,875062,accepts,a chocolate,a steak,EXPERIMENTAL,wants,5ea32a0ea7b59a0c92e82ac8
Y/N,want,E15,EXPERIMENTAL,,5428,a cake or a cherry,b,html-keyboard-response,370,2.1.0,883030,dislikes,a cherry,a cake,EXPERIMENTAL,wants,5ea32a0ea7b59a0c92e82ac8
Y,does not mind,N55,DOUBLE_CONTROL_MIND,,4084,pastrami or a meatloaf,n,html-keyboard-response,376,2.1.0,889930,accepts,a meatloaf,pastrami,EXPERIMENTAL,,5ea32a0ea7b59a0c92e82ac8
Y/N,want,E21,EXPERIMENTAL,,7906,caramel or a mango,b,html-keyboard-response,381,2.1.0,900379,dislikes,a mango,caramel,EXPERIMENTAL,wants,5ea32a0ea7b59a0c92e82ac8
N,want,S20,SINGLE_CONTROL,,5269,a hotdog,n,html-keyboard-response,386,2.1.0,908181,accepts,,a hotdog,EXPERIMENTAL,,5ea32a0ea7b59a0c92e82ac8
N,want,S14,SINGLE_CONTROL,,2064,a sausage,n,html-keyboard-response,391,2.1.0,912765,accepts,,a sausage,EXPERIMENTAL,,5ea32a0ea7b59a0c92e82ac8
Y,want,D15,DOUBLE_CONTROL,,6847,a cherry or a pear,b,html-keyboard-response,396,2.1.0,922151,wants,a pear,a cherry,EXPERIMENTAL,,5ea32a0ea7b59a0c92e82ac8
N,want,D26,DOUBLE_CONTROL,,1648,pork or ribs,n,html-keyboard-response,401,2.1.0,926333,accepts,ribs,pork,EXPERIMENTAL,,5ea32a0ea7b59a0c92e82ac8
N,want,D17,DOUBLE_CONTROL,,2176,a meatloaf or a sausage,n,html-keyboard-response,406,2.1.0,931029,accepts,a sausage,a meatloaf,EXPERIMENTAL,,5ea32a0ea7b59a0c92e82ac8
N,want,S13,SINGLE_CONTROL,,1898,a pear,n,html-keyboard-response,411,2.1.0,935457,dislikes,,a pear,EXPERIMENTAL,,5ea32a0ea7b59a0c92e82ac8
Y/N,want,E13,EXPERIMENTAL,,3202,a sausage or a cupcake,n,html-keyboard-response,416,2.1.0,941184,accepts,a cupcake,a sausage,EXPERIMENTAL,wants,5ea32a0ea7b59a0c92e82ac8
Y/N,want,E8,EXPERIMENTAL,,6230,a kebab or a cranberry,n,html-keyboard-response,421,2.1.0,949942,accepts,a cranberry,a kebab,EXPERIMENTAL,dislikes,5ea32a0ea7b59a0c92e82ac8
Y,does not mind,M43,SINGLE_CONTROL_MIND,,1651,turkey,b,html-keyboard-response,427,2.1.0,954382,accepts,,turkey,EXPERIMENTAL,,5ea32a0ea7b59a0c92e82ac8
N,want,S34,SINGLE_CONTROL,,2007,a pineapple,n,html-keyboard-response,432,2.1.0,958933,dislikes,,a pineapple,EXPERIMENTAL,,5ea32a0ea7b59a0c92e82ac8
Y/N,want,E6,EXPERIMENTAL,,3000,a biscuit or a cranberry,b,html-keyboard-response,437,2.1.0,964470,wants,a cranberry,a biscuit,EXPERIMENTAL,dislikes,5ea32a0ea7b59a0c92e82ac8
Y,want,D9,DOUBLE_CONTROL,,6074,a lollipop or a biscuit,n,html-keyboard-response,442,2.1.0,973068,wants,a biscuit,a lollipop,EXPERIMENTAL,,5ea32a0ea7b59a0c92e82ac8
Y/N,want,E5,EXPERIMENTAL,,5432,a grapefruit or a burger,n,html-keyboard-response,447,2.1.0,981014,dislikes,a burger,a grapefruit,EXPERIMENTAL,accepts,5ea32a0ea7b59a0c92e82ac8
Y,want,S6,SINGLE_CONTROL,,9058,a biscuit,b,html-keyboard-response,452,2.1.0,992606,wants,,a biscuit,EXPERIMENTAL,,5ea32a0ea7b59a0c92e82ac8
N,want,S41,SINGLE_CONTROL,,3307,a roast,n,html-keyboard-response,457,2.1.0,998441,accepts,,a roast,EXPERIMENTAL,,5ea32a0ea7b59a0c92e82ac8
Y/N,want,E19,EXPERIMENTAL,,4253,a hotdog or an orange,b,html-keyboard-response,462,2.1.0,1005216,accepts,an orange,a hotdog,EXPERIMENTAL,wants,5ea32a0ea7b59a0c92e82ac8
Y/N,want,E17,EXPERIMENTAL,,5855,a cake or a meatloaf,n,html-keyboard-response,467,2.1.0,1013583,dislikes,a meatloaf,a cake,EXPERIMENTAL,accepts,5ea32a0ea7b59a0c92e82ac8
N,want,S19,SINGLE_CONTROL,,2582,a muffin,n,html-keyboard-response,472,2.1.0,1018703,dislikes,,a muffin,EXPERIMENTAL,,5ea32a0ea7b59a0c92e82ac8
N,want,D1,DOUBLE_CONTROL,,1849,a strawberry or a peach,n,html-keyboard-response,477,2.1.0,1023088,dislikes,a peach,a strawberry,EXPERIMENTAL,,5ea32a0ea7b59a0c92e82ac8
Y,want,S0,SINGLE_CONTROL,,4159,a chocolate,b,html-keyboard-response,482,2.1.0,1029775,wants,,a chocolate,EXPERIMENTAL,,5ea32a0ea7b59a0c92e82ac8
Y,want,S30,SINGLE_CONTROL,,2398,a popsicle,b,html-keyboard-response,487,2.1.0,1034700,wants,,a popsicle,EXPERIMENTAL,,5ea32a0ea7b59a0c92e82ac8
Y,want,D12,DOUBLE_CONTROL,,3482,a cupcake or a lollipop,b,html-keyboard-response,492,2.1.0,1040718,wants,a lollipop,a cupcake,EXPERIMENTAL,,5ea32a0ea7b59a0c92e82ac8
N,want,D19,DOUBLE_CONTROL,,2747,a muffin or a cake,n,html-keyboard-response,497,2.1.0,1045982,dislikes,a cake,a muffin,EXPERIMENTAL,,5ea32a0ea7b59a0c92e82ac8
N,want,S4,SINGLE_CONTROL,,1268,a grapefruit,n,html-keyboard-response,502,2.1.0,1049783,dislikes,,a grapefruit,EXPERIMENTAL,,5ea32a0ea7b59a0c92e82ac8
N,want,S40,SINGLE_CONTROL,,1362,a candy,n,html-keyboard-response,507,2.1.0,1053672,dislikes,,a candy,EXPERIMENTAL,,5ea32a0ea7b59a0c92e82ac8
Y,want,D6,DOUBLE_CONTROL,,22569,a biscuit or a cookie,b,html-keyboard-response,512,2.1.0,1078770,wants,a cookie,a biscuit,EXPERIMENTAL,,5ea32a0ea7b59a0c92e82ac8
N,does not mind,N54,DOUBLE_CONTROL_MIND,,16638,a crepe or a cake,n,html-keyboard-response,518,2.1.0,1098191,dislikes,a cake,a crepe,EXPERIMENTAL,,5ea32a0ea7b59a0c92e82ac8
N,want,D13,DOUBLE_CONTROL,,8404,a pear or an apple,n,html-keyboard-response,523,2.1.0,1109112,dislikes,an apple,a pear,EXPERIMENTAL,,5ea32a0ea7b59a0c92e82ac8
N,want,S31,SINGLE_CONTROL,,4975,a blueberry,n,html-keyboard-response,528,2.1.0,1116613,dislikes,,a blueberry,EXPERIMENTAL,,5ea32a0ea7b59a0c92e82ac8
Y/N,want,E10,EXPERIMENTAL,,2343,a lollipop or a meatball,b,html-keyboard-response,533,2.1.0,1121491,wants,a meatball,a lollipop,EXPERIMENTAL,accepts,5ea32a0ea7b59a0c92e82ac8
Y/N,want,E14,EXPERIMENTAL,,3165,a sausage or a pear,n,html-keyboard-response,538,2.1.0,1127205,accepts,a pear,a sausage,EXPERIMENTAL,dislikes,5ea32a0ea7b59a0c92e82ac8
N,does not mind,N56,DOUBLE_CONTROL_MIND,,3277,nougat or a muffin,b,html-keyboard-response,544,2.1.0,1133263,dislikes,a muffin,nougat,EXPERIMENTAL,,5ea32a0ea7b59a0c92e82ac8
Y,does not mind,M45,SINGLE_CONTROL_MIND,,2940,salami,b,html-keyboard-response,550,2.1.0,1138991,accepts,,salami,EXPERIMENTAL,,5ea32a0ea7b59a0c92e82ac8
N,want,D29,DOUBLE_CONTROL,,3563,beef or pork,n,html-keyboard-response,555,2.1.0,1145080,accepts,pork,beef,EXPERIMENTAL,,5ea32a0ea7b59a0c92e82ac8
N,want,S26,SINGLE_CONTROL,,13451,pork,b,html-keyboard-response,560,2.1.0,1161059,accepts,,pork,EXPERIMENTAL,,5ea32a0ea7b59a0c92e82ac8
N,want,D16,DOUBLE_CONTROL,,25842,a cake or a cupcake,n,html-keyboard-response,565,2.1.0,1189420,dislikes,a cupcake,a cake,EXPERIMENTAL,,5ea32a0ea7b59a0c92e82ac8
N,want,D25,DOUBLE_CONTROL,,5725,a donut or caramel,n,html-keyboard-response,570,2.1.0,1197680,dislikes,caramel,a donut,EXPERIMENTAL,,5ea32a0ea7b59a0c92e82ac8
N,does not mind,M48,SINGLE_CONTROL_MIND,,5247,an eclair,n,html-keyboard-response,577,2.1.0,1228945,dislikes,,an eclair,EXPERIMENTAL,,5ea32a0ea7b59a0c92e82ac8
N,want,S8,SINGLE_CONTROL,,2682,a kebab,n,html-keyboard-response,582,2.1.0,1234170,accepts,,a kebab,EXPERIMENTAL,,5ea32a0ea7b59a0c92e82ac8
Y,want,D3,DOUBLE_CONTROL,,14066,a cookie or a chocolate,b,html-keyboard-response,587,2.1.0,1250765,wants,a chocolate,a cookie,EXPERIMENTAL,,5ea32a0ea7b59a0c92e82ac8
N,want,S38,SINGLE_CONTROL,,2774,bacon,b,html-keyboard-response,592,2.1.0,1256058,accepts,,bacon,EXPERIMENTAL,,5ea32a0ea7b59a0c92e82ac8
N,want,S16,SINGLE_CONTROL,,1400,a cake,n,html-keyboard-response,597,2.1.0,1260001,dislikes,,a cake,EXPERIMENTAL,,5ea32a0ea7b59a0c92e82ac8
N,want,S32,SINGLE_CONTROL,,3942,chicken,n,html-keyboard-response,602,2.1.0,1266489,accepts,,chicken,EXPERIMENTAL,,5ea32a0ea7b59a0c92e82ac8
N,want,S10,SINGLE_CONTROL,,2801,an apple,n,html-keyboard-response,607,2.1.0,1271807,dislikes,,an apple,EXPERIMENTAL,,5ea32a0ea7b59a0c92e82ac8
Y/N,does not mind,Z60,EXPERIMENTAL,,4554,fudge or lamb,b,html-keyboard-response,613,2.1.0,1279153,dislikes,lamb,fudge,EXPERIMENTAL,accepts,5ea32a0ea7b59a0c92e82ac8
Y/N,want,E27,EXPERIMENTAL,,8664,a brownie or a peach,b,html-keyboard-response,618,2.1.0,1290359,dislikes,a peach,a brownie,EXPERIMENTAL,wants,5ea32a0ea7b59a0c92e82ac8
N,want,D10,DOUBLE_CONTROL,,7574,an apple or a cranberry,n,html-keyboard-response,623,2.1.0,1300450,dislikes,a cranberry,an apple,EXPERIMENTAL,,5ea32a0ea7b59a0c92e82ac8
N,want,D8,DOUBLE_CONTROL,,3241,a kebab or a burger,n,html-keyboard-response,628,2.1.0,1306212,accepts,a burger,a kebab,EXPERIMENTAL,,5ea32a0ea7b59a0c92e82ac8
N,want,S11,SINGLE_CONTROL,,4747,a meatball,n,html-keyboard-response,633,2.1.0,1313496,accepts,,a meatball,EXPERIMENTAL,,5ea32a0ea7b59a0c92e82ac8
Y/N,want,E16,EXPERIMENTAL,,36164,a cherry or a meatloaf,n,html-keyboard-response,638,2.1.0,1352183,wants,a meatloaf,a cherry,EXPERIMENTAL,accepts,5ea32a0ea7b59a0c92e82ac8
N,does not mind,M44,SINGLE_CONTROL_MIND,,5411,a kiwi,b,html-keyboard-response,644,2.1.0,1360375,dislikes,,a kiwi,EXPERIMENTAL,,5ea32a0ea7b59a0c92e82ac8
Y/N,want,E29,EXPERIMENTAL,,3633,a brownie or beef,n,html-keyboard-response,649,2.1.0,1366537,dislikes,beef,a brownie,EXPERIMENTAL,accepts,5ea32a0ea7b59a0c92e82ac8
N,want,D22,DOUBLE_CONTROL,,4643,caramel or a muffin,n,html-keyboard-response,654,2.1.0,1373707,dislikes,a muffin,caramel,EXPERIMENTAL,,5ea32a0ea7b59a0c92e82ac8
N,want,D28,DOUBLE_CONTROL,,3098,a brownie or a donut,n,html-keyboard-response,659,2.1.0,1379336,dislikes,a donut,a brownie,EXPERIMENTAL,,5ea32a0ea7b59a0c92e82ac8
N,does not mind,N52,DOUBLE_CONTROL_MIND,,3389,a nectarine or a pear,n,html-keyboard-response,665,2.1.0,1385495,dislikes,a pear,a nectarine,EXPERIMENTAL,,5ea32a0ea7b59a0c92e82ac8
Y,want,S36,SINGLE_CONTROL,,2341,a papaya,b,html-keyboard-response,670,2.1.0,1390369,wants,,a papaya,EXPERIMENTAL,,5ea32a0ea7b59a0c92e82ac8
Y/N,want,E4,EXPERIMENTAL,,4918,a cookie or a burger,b,html-keyboard-response,675,2.1.0,1397802,wants,a burger,a cookie,EXPERIMENTAL,accepts,5ea32a0ea7b59a0c92e82ac8
Y/N,want,E24,EXPERIMENTAL,,11655,a plum or a donut,b,html-keyboard-response,680,2.1.0,1411991,wants,a donut,a plum,EXPERIMENTAL,dislikes,5ea32a0ea7b59a0c92e82ac8
Y/N,want,E7,EXPERIMENTAL,,11445,a kebab or a biscuit,b,html-keyboard-response,685,2.1.0,1425994,accepts,a biscuit,a kebab,EXPERIMENTAL,wants,5ea32a0ea7b59a0c92e82ac8
Y,does not mind,M49,SINGLE_CONTROL_MIND,,1938,duck,b,html-keyboard-response,691,2.1.0,1430718,accepts,,duck,EXPERIMENTAL,,5ea32a0ea7b59a0c92e82ac8
Y/N,want,E0,EXPERIMENTAL,,3492,a chocolate or a strawberry,n,html-keyboard-response,696,2.1.0,1436749,wants,a strawberry,a chocolate,EXPERIMENTAL,dislikes,5ea32a0ea7b59a0c92e82ac8
N,does not mind,M46,SINGLE_CONTROL_MIND,,6434,fudge,n,html-keyboard-response,702,2.1.0,1445989,dislikes,,fudge,EXPERIMENTAL,,5ea32a0ea7b59a0c92e82ac8
Y/N,want,E26,EXPERIMENTAL,,2499,pork or a donut,n,html-keyboard-response,707,2.1.0,1451030,accepts,a donut,pork,EXPERIMENTAL,dislikes,5ea32a0ea7b59a0c92e82ac8
N,want,D7,DOUBLE_CONTROL,,10275,a cranberry or a grapefruit,n,html-keyboard-response,712,2.1.0,1463824,dislikes,a grapefruit,a cranberry,EXPERIMENTAL,,5ea32a0ea7b59a0c92e82ac8
N,want,S23,SINGLE_CONTROL,,39200,ribs,b,html-keyboard-response,717,2.1.0,1505554,accepts,,ribs,EXPERIMENTAL,,5ea32a0ea7b59a0c92e82ac8
Y/N,want,E9,EXPERIMENTAL,,4161,an apple or a lollipop,b,html-keyboard-response,722,2.1.0,1512262,dislikes,a lollipop,an apple,EXPERIMENTAL,wants,5ea32a0ea7b59a0c92e82ac8
N,want,S22,SINGLE_CONTROL,,3326,caramel,n,html-keyboard-response,727,2.1.0,1518123,dislikes,,caramel,EXPERIMENTAL,,5ea32a0ea7b59a0c92e82ac8
Y,want,S9,SINGLE_CONTROL,,6260,a lollipop,b,html-keyboard-response,732,2.1.0,1526909,wants,,a lollipop,EXPERIMENTAL,,5ea32a0ea7b59a0c92e82ac8
Y,want,S21,SINGLE_CONTROL,,1655,a mango,b,html-keyboard-response,737,2.1.0,1531088,wants,,a mango,EXPERIMENTAL,,5ea32a0ea7b59a0c92e82ac8
N,want,D2,DOUBLE_CONTROL,,1987,a steak or beef,n,html-keyboard-response,742,2.1.0,1535606,accepts,beef,a steak,EXPERIMENTAL,,5ea32a0ea7b59a0c92e82ac8
Y/N,want,E2,EXPERIMENTAL,,5587,a steak or a strawberry,n,html-keyboard-response,747,2.1.0,1543742,accepts,a strawberry,a steak,EXPERIMENTAL,dislikes,5ea32a0ea7b59a0c92e82ac8
Y,does not mind,N51,DOUBLE_CONTROL_MIND,,2242,brisket or a meatball,b,html-keyboard-response,753,2.1.0,1548762,accepts,a meatball,brisket,EXPERIMENTAL,,5ea32a0ea7b59a0c92e82ac8
N,does not mind,N50,DOUBLE_CONTROL_MIND,,2073,a lychee or an apple,n,html-keyboard-response,759,2.1.0,1553605,dislikes,an apple,a lychee,EXPERIMENTAL,,5ea32a0ea7b59a0c92e82ac8
N,want,S17,SINGLE_CONTROL,,1795,a meatloaf,n,html-keyboard-response,764,2.1.0,1557934,accepts,,a meatloaf,EXPERIMENTAL,,5ea32a0ea7b59a0c92e82ac8
N,want,D23,DOUBLE_CONTROL,,1644,ribs or a hotdog,n,html-keyboard-response,769,2.1.0,1562113,accepts,a hotdog,ribs,EXPERIMENTAL,,5ea32a0ea7b59a0c92e82ac8
Y/N,want,E25,EXPERIMENTAL,,4228,pork or a plum,b,html-keyboard-response,774,2.1.0,1568867,accepts,a plum,pork,EXPERIMENTAL,wants,5ea32a0ea7b59a0c92e82ac8
Y,want,S18,SINGLE_CONTROL,,5816,an orange,b,html-keyboard-response,779,2.1.0,1577205,wants,,an orange,EXPERIMENTAL,,5ea32a0ea7b59a0c92e82ac8
Y/N,want,E28,EXPERIMENTAL,,2131,a peach or beef,b,html-keyboard-response,784,2.1.0,1581865,wants,beef,a peach,EXPERIMENTAL,accepts,5ea32a0ea7b59a0c92e82ac8
Y,want,D0,DOUBLE_CONTROL,,2025,a chocolate or a brownie,b,html-keyboard-response,789,2.1.0,1586412,wants,a brownie,a chocolate,EXPERIMENTAL,,5ea32a0ea7b59a0c92e82ac8
Y/N,does not mind,Z61,EXPERIMENTAL,,5541,duck or an eclair,n,html-keyboard-response,795,2.1.0,1594758,accepts,an eclair,duck,EXPERIMENTAL,dislikes,5ea32a0ea7b59a0c92e82ac8
N,want,S7,SINGLE_CONTROL,,3146,a cranberry,n,html-keyboard-response,800,2.1.0,1600425,dislikes,,a cranberry,EXPERIMENTAL,,5ea32a0ea7b59a0c92e82ac8
N,want,D20,DOUBLE_CONTROL,,1825,a hotdog or a meatloaf,n,html-keyboard-response,805,2.1.0,1604778,accepts,a meatloaf,a hotdog,EXPERIMENTAL,,5ea32a0ea7b59a0c92e82ac8
N,want,S28,SINGLE_CONTROL,,3903,a brownie,n,html-keyboard-response,810,2.1.0,1611208,dislikes,,a brownie,EXPERIMENTAL,,5ea32a0ea7b59a0c92e82ac8
Y/N,want,E20,EXPERIMENTAL,,8045,a hotdog or a muffin,n,html-keyboard-response,815,2.1.0,1621790,accepts,a muffin,a hotdog,EXPERIMENTAL,dislikes,5ea32a0ea7b59a0c92e82ac8
N,want,S37,SINGLE_CONTROL,,1889,a truffle,n,html-keyboard-response,820,2.1.0,1626190,dislikes,,a truffle,EXPERIMENTAL,,5ea32a0ea7b59a0c92e82ac8
Y,want,S15,SINGLE_CONTROL,,906,a cherry,b,html-keyboard-response,825,2.1.0,1629623,wants,,a cherry,EXPERIMENTAL,,5ea32a0ea7b59a0c92e82ac8
Y,want,S24,SINGLE_CONTROL,,966,a plum,b,html-keyboard-response,830,2.1.0,1633113,wants,,a plum,EXPERIMENTAL,,5ea32a0ea7b59a0c92e82ac8
Y,want,S27,SINGLE_CONTROL,,668,a peach,b,html-keyboard-response,835,2.1.0,1636322,wants,,a peach,EXPERIMENTAL,,5ea32a0ea7b59a0c92e82ac8
N,want,D5,DOUBLE_CONTROL,,1588,a burger or a steak,n,html-keyboard-response,840,2.1.0,1640433,accepts,a steak,a burger,EXPERIMENTAL,,5ea32a0ea7b59a0c92e82ac8
N,want,S1,SINGLE_CONTROL,,1520,a strawberry,n,html-keyboard-response,845,2.1.0,1644484,dislikes,,a strawberry,EXPERIMENTAL,,5ea32a0ea7b59a0c92e82ac8
Y,want,D18,DOUBLE_CONTROL,,2929,an orange or a cherry,b,html-keyboard-response,850,2.1.0,1649935,wants,a cherry,an orange,EXPERIMENTAL,,5ea32a0ea7b59a0c92e82ac8
Y,does not mind,M47,SINGLE_CONTROL_MIND,,2278,lamb,b,html-keyboard-response,856,2.1.0,1655006,accepts,,lamb,EXPERIMENTAL,,5ea32a0ea7b59a0c92e82ac8
Y,does not mind,N53,DOUBLE_CONTROL_MIND,,4658,veal or a sausage,b,html-keyboard-response,862,2.1.0,1662473,accepts,a sausage,veal,EXPERIMENTAL,,5ea32a0ea7b59a0c92e82ac8
N,want,D11,DOUBLE_CONTROL,,7566,a meatball or a kebab,b,html-keyboard-response,867,2.1.0,1672562,accepts,a kebab,a meatball,EXPERIMENTAL,,5ea32a0ea7b59a0c92e82ac8
Y/N,want,E12,EXPERIMENTAL,,4282,a cupcake or a pear,n,html-keyboard-response,872,2.1.0,1679374,wants,a pear,a cupcake,EXPERIMENTAL,dislikes,5ea32a0ea7b59a0c92e82ac8
Y/N,want,E11,EXPERIMENTAL,,4071,an apple or a meatball,n,html-keyboard-response,877,2.1.0,1685971,dislikes,a meatball,an apple,EXPERIMENTAL,accepts,5ea32a0ea7b59a0c92e82ac8
Y,want,S12,SINGLE_CONTROL,,5651,a cupcake,b,html-keyboard-response,882,2.1.0,1694149,wants,,a cupcake,EXPERIMENTAL,,5ea32a0ea7b59a0c92e82ac8
Y/N,want,E22,EXPERIMENTAL,,2626,a mango or ribs,b,html-keyboard-response,887,2.1.0,1699302,wants,ribs,a mango,EXPERIMENTAL,accepts,5ea32a0ea7b59a0c92e82ac8
Y,does not mind,E13,DOUBLE_CONTROL_MIND,Andrew-the-Urbanite is does not mind eating a kebab or a burger,13393,a kebab or a burger,n,html-keyboard-response,5,2.1.0,300954,accepts,a burger,a kebab,PRACTICE,,6825c58975ae792185906b17
N,want,D12,DOUBLE_CONTROL,Linda-the-Urbanite wants to eat a kebab or a burger,5939,a kebab or a burger,b,html-keyboard-response,11,2.1.0,315577,accepts,a burger,a kebab,PRACTICE,,6825c58975ae792185906b17
Y,want,S5,SINGLE_CONTROL,Elizabeth-the-Urbanite wants to eat a cookie,4833,a cookie,b,html-keyboard-response,17,2.1.0,326241,wants,,a cookie,PRACTICE,,6825c58975ae792185906b17
N,does not mind,E14,DOUBLE_CONTROL_MIND,Matthew-the-Urbanite is does not mind eating a cranberry or a grapefruit,4514,a cranberry or a grapefruit,n,html-keyboard-response,24,2.1.0,335585,dislikes,a grapefruit,a cranberry,PRACTICE,,6825c58975ae792185906b17
Y,want,S15,SINGLE_CONTROL,Sandra-the-Nomad wants to eat an apple,2295,an apple,b,html-keyboard-response,30,2.1.0,342753,wants,,an apple,PRACTICE,,6825c58975ae792185906b17
Y,does not mind,F19,SINGLE_CONTROL_MIND,Jennifer-the-Nomad does not mind eating a meatball,2138,a meatball,b,html-keyboard-response,37,2.1.0,350788,accepts,,a meatball,PRACTICE,,6825c58975ae792185906b17
N,does not mind,F3,SINGLE_CONTROL_MIND,Dorothy-the-Urbanite does not mind eating a strawberry,3230,a strawberry,n,html-keyboard-response,44,2.1.0,360714,dislikes,,a strawberry,PRACTICE,,6825c58975ae792185906b17
N,want,S1,SINGLE_CONTROL,Michael-the-Urbanite wants to eat a strawberry,1791,a strawberry,n,html-keyboard-response,50,2.1.0,366826,dislikes,,a strawberry,PRACTICE,,6825c58975ae792185906b17
N,want,D16,DOUBLE_CONTROL,Ashley-the-Urbanite wants to eat an apple or a cranberry,2254,an apple or a cranberry,n,html-keyboard-response,56,2.1.0,373674,dislikes,a cranberry,an apple,PRACTICE,,6825c58975ae792185906b17
Y,does not mind,E8,DOUBLE_CONTROL_MIND,William-the-Nomad is does not mind eating a burger or a steak,3504,a burger or a steak,n,html-keyboard-response,63,2.1.0,381129,accepts,a steak,a burger,PRACTICE,,6825c58975ae792185906b17
N,does not mind,E9,DOUBLE_CONTROL_MIND,Margaret-the-Nomad is does not mind eating a cookie or a chocolate,2315,a cookie or a chocolate,n,html-keyboard-response,70,2.1.0,388498,dislikes,a chocolate,a cookie,PRACTICE,,6825c58975ae792185906b17
Y,want,S10,SINGLE_CONTROL,Patricia-the-Nomad wants to eat a cranberry,1934,a cranberry,b,html-keyboard-response,76,2.1.0,395097,wants,,a cranberry,PRACTICE,,6825c58975ae792185906b17
N,does not mind,F13,SINGLE_CONTROL_MIND,Andrew-the-Nomad does not mind eating a biscuit,1953,a biscuit,n,html-keyboard-response,83,2.1.0,401434,dislikes,,a biscuit,PRACTICE,,6825c58975ae792185906b17
Y,want,D15,DOUBLE_CONTROL,Sandra-the-Urbanite wants to eat a lollipop or a biscuit,1508,a lollipop or a biscuit,b,html-keyboard-response,89,2.1.0,406922,wants,a biscuit,a lollipop,PRACTICE,,6825c58975ae792185906b17
N,want,S17,SINGLE_CONTROL,Susan-the-Nomad wants to eat a meatball,1309,a meatball,b,html-keyboard-response,95,2.1.0,411746,accepts,,a meatball,PRACTICE,,6825c58975ae792185906b17
N,want,S12,SINGLE_CONTROL,Linda-the-Nomad wants to eat a kebab,2250,a kebab,n,html-keyboard-response,101,2.1.0,418801,accepts,,a kebab,PRACTICE,,6825c58975ae792185906b17
Y,does not mind,F14,SINGLE_CONTROL_MIND,Matthew-the-Nomad does not mind eating a kebab,2002,a kebab,n,html-keyboard-response,108,2.1.0,424842,accepts,,a kebab,PRACTICE,,6825c58975ae792185906b17
Y,does not mind,E3,DOUBLE_CONTROL_MIND,Dorothy-the-Nomad is does not mind eating a steak or beef,1699,a steak or beef,b,html-keyboard-response,115,2.1.0,433570,accepts,beef,a steak,PRACTICE,,6825c58975ae792185906b17
N,does not mind,E4,DOUBLE_CONTROL_MIND,Barbara-the-Nomad is does not mind eating a chocolate or a brownie,1892,a chocolate or a brownie,n,html-keyboard-response,122,2.1.0,440393,dislikes,a brownie,a chocolate,PRACTICE,,6825c58975ae792185906b17
N,want,S2,SINGLE_CONTROL,Christopher-the-Urbanite wants to eat a steak,1721,a steak,b,html-keyboard-response,128,2.1.0,445786,accepts,,a steak,PRACTICE,,6825c58975ae792185906b17
Y,does not mind,F4,SINGLE_CONTROL_MIND,Barbara-the-Urbanite does not mind eating a steak,1346,a steak,n,html-keyboard-response,135,2.1.0,452042,accepts,,a steak,PRACTICE,,6825c58975ae792185906b17
Y,does not mind,E18,DOUBLE_CONTROL_MIND,Anthony-the-Urbanite is does not mind eating a meatball or a kebab,2086,a meatball or a kebab,b,html-keyboard-response,142,2.1.0,460137,accepts,a kebab,a meatball,PRACTICE,,6825c58975ae792185906b17
Y,want,D10,DOUBLE_CONTROL,Patricia-the-Urbanite wants to eat a biscuit or a cookie,1318,a biscuit or a cookie,b,html-keyboard-response,148,2.1.0,465154,wants,a cookie,a biscuit,PRACTICE,,6825c58975ae792185906b17
N,want,S6,SINGLE_CONTROL,Nancy-the-Urbanite wants to eat a grapefruit,1314,a grapefruit,n,html-keyboard-response,154,2.1.0,469802,dislikes,,a grapefruit,PRACTICE,,6825c58975ae792185906b17
N,want,D2,DOUBLE_CONTROL,Christopher-the-Nomad wants to eat a steak or beef,1688,a steak or beef,b,html-keyboard-response,160,2.1.0,474762,accepts,beef,a steak,PRACTICE,,6825c58975ae792185906b17
N,want,S11,SINGLE_CONTROL,Sarah-the-Nomad wants to eat a biscuit,1538,a biscuit,n,html-keyboard-response,166,2.1.0,481706,dislikes,,a biscuit,PRACTICE,,6825c58975ae792185906b17
N,want,S16,SINGLE_CONTROL,Ashley-the-Nomad wants to eat a lollipop,1462,a lollipop,n,html-keyboard-response,172,2.1.0,486834,dislikes,,a lollipop,PRACTICE,,6825c58975ae792185906b17
N,want,D7,DOUBLE_CONTROL,Daniel-the-Nomad wants to eat a burger or a steak,2395,a burger or a steak,b,html-keyboard-response,178,2.1.0,492627,accepts,a steak,a burger,PRACTICE,,6825c58975ae792185906b17
N,want,D1,DOUBLE_CONTROL,Michael-the-Nomad wants to eat a chocolate or a brownie,1642,a chocolate or a brownie,n,html-keyboard-response,184,2.1.0,498330,dislikes,a brownie,a chocolate,PRACTICE,,6825c58975ae792185906b17
Y,want,D5,DOUBLE_CONTROL,Elizabeth-the-Nomad wants to eat a grapefruit or a strawberry,1516,a grapefruit or a strawberry,b,html-keyboard-response,190,2.1.0,503106,wants,a strawberry,a grapefruit,PRACTICE,,6825c58975ae792185906b17
N,does not mind,F18,SINGLE_CONTROL_MIND,Anthony-the-Nomad does not mind eating a lollipop,1180,a lollipop,b,html-keyboard-response,197,2.1.0,508210,dislikes,,a lollipop,PRACTICE,,6825c58975ae792185906b17
Y,want,D0,DOUBLE_CONTROL,Charles-the-Nomad wants to eat a strawberry or a peach,1675,a strawberry or a peach,b,html-keyboard-response,203,2.1.0,514075,wants,a peach,a strawberry,PRACTICE,,6825c58975ae792185906b17
N,does not mind,E19,DOUBLE_CONTROL_MIND,Jennifer-the-Urbanite is does not mind eating an apple or a cranberry,4496,an apple or a cranberry,b,html-keyboard-response,210,2.1.0,522834,dislikes,a cranberry,an apple,PRACTICE,,6825c58975ae792185906b17
N,want,D6,DOUBLE_CONTROL,Nancy-the-Nomad wants to eat a cookie or a chocolate,1786,a cookie or a chocolate,b,html-keyboard-response,216,2.1.0,528074,dislikes,a chocolate,a cookie,PRACTICE,,6825c58975ae792185906b17
Y,want,S0,SINGLE_CONTROL,Charles-the-Urbanite wants to eat a chocolate,1123,a chocolate,b,html-keyboard-response,222,2.1.0,532946,wants,,a chocolate,PRACTICE,,6825c58975ae792185906b17
N,does not mind,F8,SINGLE_CONTROL_MIND,William-the-Urbanite does not mind eating a grapefruit,4271,a grapefruit,b,html-keyboard-response,229,2.1.0,540946,dislikes,,a grapefruit,PRACTICE,,6825c58975ae792185906b17
Y,does not mind,F9,SINGLE_CONTROL_MIND,Margaret-the-Urbanite does not mind eating a burger,3770,a burger,b,html-keyboard-response,236,2.1.0,548681,accepts,,a burger,PRACTICE,,6825c58975ae792185906b17
N,want,D17,DOUBLE_CONTROL,Susan-the-Urbanite wants to eat a meatball or a kebab,2612,a meatball or a kebab,b,html-keyboard-response,242,2.1.0,554819,accepts,a kebab,a meatball,PRACTICE,,6825c58975ae792185906b17
N,want,S7,SINGLE_CONTROL,Daniel-the-Urbanite wants to eat a burger,2337,a burger,b,html-keyboard-response,248,2.1.0,560658,accepts,,a burger,PRACTICE,,6825c58975ae792185906b17
N,want,D11,DOUBLE_CONTROL,Sarah-the-Urbanite wants to eat a cranberry or a grapefruit,2114,a cranberry or a grapefruit,b,html-keyboard-response,254,2.1.0,566161,dislikes,a grapefruit,a cranberry,PRACTICE,,6825c58975ae792185906b17
N,want,S14,SINGLE_CONTROL,,2793,a sausage,b,html-keyboard-response,261,2.1.0,615930,accepts,,a sausage,EXPERIMENTAL,,6825c58975ae792185906b17
Y,does not mind,N55,DOUBLE_CONTROL_MIND,,3218,pastrami or a meatloaf,b,html-keyboard-response,267,2.1.0,621931,accepts,a meatloaf,pastrami,EXPERIMENTAL,,6825c58975ae792185906b17
N,want,D25,DOUBLE_CONTROL,,2156,a donut or caramel,n,html-keyboard-response,272,2.1.0,626611,dislikes,caramel,a donut,EXPERIMENTAL,,6825c58975ae792185906b17
Y/N,does not mind,Z61,EXPERIMENTAL,,2217,duck or an eclair,b,html-keyboard-response,278,2.1.0,631594,accepts,an eclair,duck,EXPERIMENTAL,dislikes,6825c58975ae792185906b17
N,want,S29,SINGLE_CONTROL,,1035,beef,b,html-keyboard-response,283,2.1.0,635154,accepts,,beef,EXPERIMENTAL,,6825c58975ae792185906b17
Y/N,want,E9,EXPERIMENTAL,,8405,an apple or a lollipop,b,html-keyboard-response,288,2.1.0,646074,dislikes,a lollipop,an apple,EXPERIMENTAL,wants,6825c58975ae792185906b17
Y/N,want,E27,EXPERIMENTAL,,3127,a brownie or a peach,n,html-keyboard-response,293,2.1.0,651722,dislikes,a peach,a brownie,EXPERIMENTAL,wants,6825c58975ae792185906b17
Y,does not mind,M43,SINGLE_CONTROL_MIND,,1353,turkey,b,html-keyboard-response,299,2.1.0,655866,accepts,,turkey,EXPERIMENTAL,,6825c58975ae792185906b17
Y,want,D12,DOUBLE_CONTROL,,3192,a cupcake or a lollipop,b,html-keyboard-response,304,2.1.0,661602,wants,a lollipop,a cupcake,EXPERIMENTAL,,6825c58975ae792185906b17
N,want,S7,SINGLE_CONTROL,,1582,a cranberry,n,html-keyboard-response,309,2.1.0,665714,dislikes,,a cranberry,EXPERIMENTAL,,6825c58975ae792185906b17
Y,want,S21,SINGLE_CONTROL,,1424,a mango,b,html-keyboard-response,314,2.1.0,669673,wants,,a mango,EXPERIMENTAL,,6825c58975ae792185906b17
N,want,S20,SINGLE_CONTROL,,1509,a hotdog,n,html-keyboard-response,319,2.1.0,673713,accepts,,a hotdog,EXPERIMENTAL,,6825c58975ae792185906b17
N,does not mind,N52,DOUBLE_CONTROL_MIND,,2328,a nectarine or a pear,b,html-keyboard-response,325,2.1.0,678842,dislikes,a pear,a nectarine,EXPERIMENTAL,,6825c58975ae792185906b17
Y/N,want,E6,EXPERIMENTAL,,1756,a biscuit or a cranberry,b,html-keyboard-response,330,2.1.0,683130,wants,a cranberry,a biscuit,EXPERIMENTAL,dislikes,6825c58975ae792185906b17
N,want,S35,SINGLE_CONTROL,,2105,a ham,b,html-keyboard-response,335,2.1.0,687771,accepts,,a ham,EXPERIMENTAL,,6825c58975ae792185906b17
Y,want,S12,SINGLE_CONTROL,,1334,a cupcake,n,html-keyboard-response,340,2.1.0,691618,wants,,a cupcake,EXPERIMENTAL,,6825c58975ae792185906b17
Y,does not mind,N51,DOUBLE_CONTROL_MIND,,2627,brisket or a meatball,b,html-keyboard-response,346,2.1.0,697041,accepts,a meatball,brisket,EXPERIMENTAL,,6825c58975ae792185906b17
Y,want,D27,DOUBLE_CONTROL,,2255,a peach or a plum,n,html-keyboard-response,351,2.1.0,701817,wants,a plum,a peach,EXPERIMENTAL,,6825c58975ae792185906b17
N,want,S40,SINGLE_CONTROL,,1821,a candy,b,html-keyboard-response,356,2.1.0,706154,dislikes,,a candy,EXPERIMENTAL,,6825c58975ae792185906b17
Y,want,D15,DOUBLE_CONTROL,,3301,a cherry or a pear,b,html-keyboard-response,361,2.1.0,711979,wants,a pear,a cherry,EXPERIMENTAL,,6825c58975ae792185906b17
N,want,D13,DOUBLE_CONTROL,,1598,a pear or an apple,n,html-keyboard-response,366,2.1.0,716097,dislikes,an apple,a pear,EXPERIMENTAL,,6825c58975ae792185906b17
N,want,S41,SINGLE_CONTROL,,2432,a roast,b,html-keyboard-response,371,2.1.0,721050,accepts,,a roast,EXPERIMENTAL,,6825c58975ae792185906b17
N,want,S22,SINGLE_CONTROL,,7809,caramel,n,html-keyboard-response,376,2.1.0,731403,dislikes,,caramel,EXPERIMENTAL,,6825c58975ae792185906b17
N,want,S10,SINGLE_CONTROL,,6073,an apple,n,html-keyboard-response,381,2.1.0,740011,dislikes,,an apple,EXPERIMENTAL,,6825c58975ae792185906b17
Y,does not mind,M47,SINGLE_CONTROL_MIND,,3079,lamb,n,html-keyboard-response,387,2.1.0,745859,accepts,,lamb,EXPERIMENTAL,,6825c58975ae792185906b17
N,want,D28,DOUBLE_CONTROL,,2762,a brownie or a donut,b,html-keyboard-response,392,2.1.0,751154,dislikes,a donut,a brownie,EXPERIMENTAL,,6825c58975ae792185906b17
N,want,S23,SINGLE_CONTROL,,1038,ribs,b,html-keyboard-response,397,2.1.0,754739,accepts,,ribs,EXPERIMENTAL,,6825c58975ae792185906b17
N,want,S1,SINGLE_CONTROL,,1798,a strawberry,n,html-keyboard-response,402,2.1.0,759058,dislikes,,a strawberry,EXPERIMENTAL,,6825c58975ae792185906b17
N,want,S8,SINGLE_CONTROL,,1017,a kebab,b,html-keyboard-response,407,2.1.0,762602,accepts,,a kebab,EXPERIMENTAL,,6825c58975ae792185906b17
Y/N,want,E7,EXPERIMENTAL,,1387,a kebab or a biscuit,b,html-keyboard-response,412,2.1.0,766506,accepts,a biscuit,a kebab,EXPERIMENTAL,wants,6825c58975ae792185906b17
Y,does not mind,M45,SINGLE_CONTROL_MIND,,1154,salami,b,html-keyboard-response,418,2.1.0,770429,accepts,,salami,EXPERIMENTAL,,6825c58975ae792185906b17
Y/N,want,E12,EXPERIMENTAL,,941,a cupcake or a pear,b,html-keyboard-response,423,2.1.0,773890,wants,a pear,a cupcake,EXPERIMENTAL,dislikes,6825c58975ae792185906b17
Y,want,D18,DOUBLE_CONTROL,,1137,an orange or a cherry,n,html-keyboard-response,428,2.1.0,777570,wants,a cherry,an orange,EXPERIMENTAL,,6825c58975ae792185906b17
Y,want,D0,DOUBLE_CONTROL,,1492,a chocolate or a brownie,b,html-keyboard-response,433,2.1.0,781602,wants,a brownie,a chocolate,EXPERIMENTAL,,6825c58975ae792185906b17
N,want,S38,SINGLE_CONTROL,,1124,bacon,b,html-keyboard-response,438,2.1.0,785266,accepts,,bacon,EXPERIMENTAL,,6825c58975ae792185906b17
Y/N,want,E29,EXPERIMENTAL,,1545,a brownie or beef,b,html-keyboard-response,443,2.1.0,789339,dislikes,beef,a brownie,EXPERIMENTAL,accepts,6825c58975ae792185906b17
N,want,D4,DOUBLE_CONTROL,,1384,a grapefruit or a strawberry,n,html-keyboard-response,448,2.1.0,793250,dislikes,a strawberry,a grapefruit,EXPERIMENTAL,,6825c58975ae792185906b17
Y/N,does not mind,Z59,EXPERIMENTAL,,2658,salami or a kiwi,n,html-keyboard-response,454,2.1.0,798707,accepts,a kiwi,salami,EXPERIMENTAL,dislikes,6825c58975ae792185906b17
N,want,S28,SINGLE_CONTROL,,1193,a brownie,n,html-keyboard-response,459,2.1.0,802418,dislikes,,a brownie,EXPERIMENTAL,,6825c58975ae792185906b17
N,want,S13,SINGLE_CONTROL,,2312,a pear,n,html-keyboard-response,464,2.1.0,807266,dislikes,,a pear,EXPERIMENTAL,,6825c58975ae792185906b17
Y/N,want,E16,EXPERIMENTAL,,1721,a cherry or a meatloaf,b,html-keyboard-response,469,2.1.0,811522,wants,a meatloaf,a cherry,EXPERIMENTAL,accepts,6825c58975ae792185906b17
Y/N,want,E4,EXPERIMENTAL,,1006,a cookie or a burger,b,html-keyboard-response,474,2.1.0,815052,wants,a burger,a cookie,EXPERIMENTAL,accepts,6825c58975ae792185906b17
N,want,D23,DOUBLE_CONTROL,,1751,ribs or a hotdog,b,html-keyboard-response,479,2.1.0,819338,accepts,a hotdog,ribs,EXPERIMENTAL,,6825c58975ae792185906b17
N,want,S26,SINGLE_CONTROL,,755,pork,b,html-keyboard-response,484,2.1.0,822610,accepts,,pork,EXPERIMENTAL,,6825c58975ae792185906b17
N,want,S2,SINGLE_CONTROL,,851,a steak,b,html-keyboard-response,489,2.1.0,825987,accepts,,a steak,EXPERIMENTAL,,6825c58975ae792185906b17
N,want,D1,DOUBLE_CONTROL,,1735,a strawberry or a peach,n,html-keyboard-response,494,2.1.0,830234,dislikes,a peach,a strawberry,EXPERIMENTAL,,6825c58975ae792185906b17
Y/N,want,E26,EXPERIMENTAL,,4120,pork or a donut,n,html-keyboard-response,499,2.1.0,836882,accepts,a donut,pork,EXPERIMENTAL,dislikes,6825c58975ae792185906b17
N,does not mind,M48,SINGLE_CONTROL_MIND,,3241,an eclair,n,html-keyboard-response,505,2.1.0,842890,dislikes,,an eclair,EXPERIMENTAL,,6825c58975ae792185906b17
Y/N,does not mind,Z58,EXPERIMENTAL,,1892,a banana or turkey,b,html-keyboard-response,511,2.1.0,847570,dislikes,turkey,a banana,EXPERIMENTAL,accepts,6825c58975ae792185906b17
Y/N,want,E15,EXPERIMENTAL,,3277,a cake or a cherry,b,html-keyboard-response,516,2.1.0,853386,dislikes,a cherry,a cake,EXPERIMENTAL,wants,6825c58975ae792185906b17
N,want,D2,DOUBLE_CONTROL,,1468,a steak or beef,b,html-keyboard-response,521,2.1.0,857370,accepts,beef,a steak,EXPERIMENTAL,,6825c58975ae792185906b17
N,want,S16,SINGLE_CONTROL,,901,a cake,n,html-keyboard-response,526,2.1.0,860794,dislikes,,a cake,EXPERIMENTAL,,6825c58975ae792185906b17
N,want,S31,SINGLE_CONTROL,,1042,a blueberry,b,html-keyboard-response,531,2.1.0,864362,dislikes,,a blueberry,EXPERIMENTAL,,6825c58975ae792185906b17
N,want,D8,DOUBLE_CONTROL,,1511,a kebab or a burger,b,html-keyboard-response,536,2.1.0,868395,accepts,a burger,a kebab,EXPERIMENTAL,,6825c58975ae792185906b17
N,want,S25,SINGLE_CONTROL,,1000,a donut,n,html-keyboard-response,541,2.1.0,871922,dislikes,,a donut,EXPERIMENTAL,,6825c58975ae792185906b17
N,want,S34,SINGLE_CONTROL,,1604,a pineapple,n,html-keyboard-response,546,2.1.0,876050,dislikes,,a pineapple,EXPERIMENTAL,,6825c58975ae792185906b17
Y,does not mind,N57,DOUBLE_CONTROL_MIND,,1286,mutton or a hotdog,b,html-keyboard-response,552,2.1.0,880130,accepts,a hotdog,mutton,EXPERIMENTAL,,6825c58975ae792185906b17
N,want,S17,SINGLE_CONTROL,,649,a meatloaf,b,html-keyboard-response,557,2.1.0,883314,accepts,,a meatloaf,EXPERIMENTAL,,6825c58975ae792185906b17
Y,want,S9,SINGLE_CONTROL,,2184,a lollipop,b,html-keyboard-response,562,2.1.0,888026,wants,,a lollipop,EXPERIMENTAL,,6825c58975ae792185906b17
Y/N,want,E14,EXPERIMENTAL,,1195,a sausage or a pear,b,html-keyboard-response,567,2.1.0,891739,accepts,a pear,a sausage,EXPERIMENTAL,dislikes,6825c58975ae792185906b17
Y,want,S3,SINGLE_CONTROL,,3076,a cookie,b,html-keyboard-response,572,2.1.0,897331,wants,,a cookie,EXPERIMENTAL,,6825c58975ae792185906b17
N,want,S32,SINGLE_CONTROL,,1028,chicken,b,html-keyboard-response,578,2.1.0,910954,accepts,,chicken,EXPERIMENTAL,,6825c58975ae792185906b17
Y/N,want,E19,EXPERIMENTAL,,1478,a hotdog or an orange,n,html-keyboard-response,583,2.1.0,914978,accepts,an orange,a hotdog,EXPERIMENTAL,wants,6825c58975ae792185906b17
Y/N,want,E24,EXPERIMENTAL,,2528,a plum or a donut,n,html-keyboard-response,588,2.1.0,920034,wants,a donut,a plum,EXPERIMENTAL,dislikes,6825c58975ae792185906b17
N,want,S11,SINGLE_CONTROL,,948,a meatball,b,html-keyboard-response,593,2.1.0,923498,accepts,,a meatball,EXPERIMENTAL,,6825c58975ae792185906b17
