correct,verb,item,condition,sentence,structure,subcondition,order,relation,logical_truth,item1,item2,item1_type,item2_type,tribe,feedback_correct,feedback_incorrect,rt,stimulus,response,trial_type,trial_index,plugin_version,time_elapsed,SESSION,PARTICIPANT,JATOS_STUDY_RESULT_ID,JATOS_STUDY_RESULT_UUID,JATOS_WORKER_ID,JATOS_START_DATE,JATOS_END_DATE,JATOS_DURATION,JATOS_STUDY_STATE,PROLIFIC_STUDY_ID,PROLIFIC_SESSION_ID,STIMULUS_CORRECT,STIMULUS_LOGICAL_TRUTH,STIMULUS_CONDITION,STIMULUS_SUBCONDITION,STIMULUS_ORDER
Y,want,PR0,SINGLE_CONTROL,Charles-the-Urbanite wants to eat a chocolate,single,wants,single,,Y,a chocolate,,wants,,Urbanite,Your answer is correct. Charles-the-Urbanite always wants to eat sweets.,Your answer is incorrect. Charles-the-Urbanite always wants to eat sweets.,13727,a chocolate,B,html-keyboard-response,4,2.1.0,90240,PRACTICE,695fcea7a80091f158646750,2531,b86f8bd6-71b8-4e7e-a46b-bdcbcfae58ee,2404,1768864783500,1768865638561,00:14:15,FINISHED,696e824812786c0f3a8b7680,696ebbfb24c93378939d9785,Y,Y,SINGLE_CONTROL,wants,single
N,prefer,PR19,PREFER_DIFFERENT,Jennifer-the-Urbanite prefers to eat pork rather than a brownie,preference,accepts_vs_wants,BA,lt,N,pork,a brownie,accepts,wants,Urbanite,Your answer is correct. Jennifer-the-Urbanite never prefers meat to sweets.,Your answer is incorrect. Jennifer-the-Urbanite never prefers meat to sweets.,3635,pork rather than a brownie,N,html-keyboard-response,10,2.1.0,101442,PRACTICE,695fcea7a80091f158646750,2531,b86f8bd6-71b8-4e7e-a46b-bdcbcfae58ee,2404,1768864783500,1768865638561,00:14:15,FINISHED,696e824812786c0f3a8b7680,696ebbfb24c93378939d9785,N,N,PREFER_DIFFERENT,accepts_vs_wants,BA
N,prefer,PR28,PREFER_SAME,Robert-the-Nomad prefers to eat pork rather than ribs,preference,accepts_vs_accepts,AB,eq,N,pork,ribs,accepts,accepts,Nomad,Your answer is correct. Robert-the-Nomad equally likes pork and ribs.,Your answer is incorrect. Robert-the-Nomad equally likes pork and ribs.,4615,pork rather than ribs,N,html-keyboard-response,16,2.1.0,112440,PRACTICE,695fcea7a80091f158646750,2531,b86f8bd6-71b8-4e7e-a46b-bdcbcfae58ee,2404,1768864783500,1768865638561,00:14:15,FINISHED,696e824812786c0f3a8b7680,696ebbfb24c93378939d9785,N,N,PREFER_SAME,accepts_vs_accepts,AB
N,prefer,PR30,PREFER_SAME,Emily-the-Nomad prefers to eat a strawberry rather than a peach,preference,wants_vs_wants,AB,eq,N,a strawberry,a peach,wants,wants,Nomad,Your answer is correct. Emily-the-Nomad equally likes a strawberry and a peach.,Your answer is incorrect. Emily-the-Nomad equally likes a strawberry and a peach.,2585,a strawberry rather than a peach,N,html-keyboard-response,22,2.1.0,122108,PRACTICE,695fcea7a80091f158646750,2531,b86f8bd6-71b8-4e7e-a46b-bdcbcfae58ee,2404,1768864783500,1768865638561,00:14:15,FINISHED,696e824812786c0f3a8b7680,696ebbfb24c93378939d9785,N,N,PREFER_SAME,wants_vs_wants,AB
N,prefer,PR29,PREFER_SAME,James-the-Nomad prefers to eat beef rather than pork,preference,accepts_vs_accepts,AB,eq,N,beef,pork,accepts,accepts,Nomad,Your answer is correct. James-the-Nomad equally likes beef and pork.,Your answer is incorrect. James-the-Nomad equally likes beef and pork.,1790,beef rather than pork,N,html-keyboard-response,28,2.1.0,129446,PRACTICE,695fcea7a80091f158646750,2531,b86f8bd6-71b8-4e7e-a46b-bdcbcfae58ee,2404,1768864783500,1768865638561,00:14:15,FINISHED,696e824812786c0f3a8b7680,696ebbfb24c93378939d9785,N,N,PREFER_SAME,accepts_vs_accepts,AB
Y,want,PR8,DOUBLE_CONTROL,William-the-Urbanite wants to eat a donut or caramel,disjunction,wants|wants,AB,,Y,a donut,caramel,wants,wants,Urbanite,Your answer is correct. William-the-Urbanite always wants to eat sweets.,Your answer is incorrect. William-the-Urbanite always wants to eat sweets.,2241,a donut or caramel,B,html-keyboard-response,34,2.1.0,136437,PRACTICE,695fcea7a80091f158646750,2531,b86f8bd6-71b8-4e7e-a46b-bdcbcfae58ee,2404,1768864783500,1768865638561,00:14:15,FINISHED,696e824812786c0f3a8b7680,696ebbfb24c93378939d9785,Y,Y,DOUBLE_CONTROL,wants|wants,AB
Y,prefer,PR16,PREFER_DIFFERENT,Ashley-the-Urbanite prefers to eat a hotdog rather than a cherry,preference,accepts_vs_dislikes,AB,gt,Y,a hotdog,a cherry,accepts,dislikes,Urbanite,Your answer is correct. Ashley-the-Urbanite always prefers meat to fruit.,Your answer is incorrect. Ashley-the-Urbanite always prefers meat to fruit.,3728,a hotdog rather than a cherry,B,html-keyboard-response,40,2.1.0,151825,PRACTICE,695fcea7a80091f158646750,2531,b86f8bd6-71b8-4e7e-a46b-bdcbcfae58ee,2404,1768864783500,1768865638561,00:14:15,FINISHED,696e824812786c0f3a8b7680,696ebbfb24c93378939d9785,Y,Y,PREFER_DIFFERENT,accepts_vs_dislikes,AB
Y,want,PR9,DOUBLE_CONTROL,Margaret-the-Urbanite wants to eat a donut or a brownie,disjunction,wants|wants,BA,,Y,a donut,a brownie,wants,wants,Urbanite,Your answer is correct. Margaret-the-Urbanite always wants to eat sweets.,Your answer is incorrect. Margaret-the-Urbanite always wants to eat sweets.,4978,a donut or a brownie,B,html-keyboard-response,46,2.1.0,165333,PRACTICE,695fcea7a80091f158646750,2531,b86f8bd6-71b8-4e7e-a46b-bdcbcfae58ee,2404,1768864783500,1768865638561,00:14:15,FINISHED,696e824812786c0f3a8b7680,696ebbfb24c93378939d9785,Y,Y,DOUBLE_CONTROL,wants|wants,BA
N,prefer,PR27,PREFER_SAME,Betty-the-Urbanite prefers to eat caramel rather than a muffin,preference,wants_vs_wants,AB,eq,N,caramel,a muffin,wants,wants,Urbanite,Your answer is correct. Betty-the-Urbanite equally likes caramel and a muffin.,Your answer is incorrect. Betty-the-Urbanite equally likes caramel and a muffin.,2012,caramel rather than a muffin,n,html-keyboard-response,52,2.1.0,174409,PRACTICE,695fcea7a80091f158646750,2531,b86f8bd6-71b8-4e7e-a46b-bdcbcfae58ee,2404,1768864783500,1768865638561,00:14:15,FINISHED,696e824812786c0f3a8b7680,696ebbfb24c93378939d9785,N,N,PREFER_SAME,wants_vs_wants,AB
Y,want,PR5,SINGLE_CONTROL,Elizabeth-the-Nomad wants to eat a cherry,single,wants,single,,Y,a cherry,,wants,,Nomad,Your answer is correct. Elizabeth-the-Nomad always wants to eat fruit.,Your answer is incorrect. Elizabeth-the-Nomad always wants to eat fruit.,2930,a cherry,b,html-keyboard-response,58,2.1.0,184092,PRACTICE,695fcea7a80091f158646750,2531,b86f8bd6-71b8-4e7e-a46b-bdcbcfae58ee,2404,1768864783500,1768865638561,00:14:15,FINISHED,696e824812786c0f3a8b7680,696ebbfb24c93378939d9785,Y,Y,SINGLE_CONTROL,wants,single
N,want,PR3,SINGLE_CONTROL,Dorothy-the-Urbanite wants to eat an apple,single,dislikes,single,,N,an apple,,dislikes,,Urbanite,Your answer is correct. Dorothy-the-Urbanite never wants to eat fruit.,Your answer is incorrect. Dorothy-the-Urbanite never wants to eat fruit.,1581,an apple,n,html-keyboard-response,64,2.1.0,191659,PRACTICE,695fcea7a80091f158646750,2531,b86f8bd6-71b8-4e7e-a46b-bdcbcfae58ee,2404,1768864783500,1768865638561,00:14:15,FINISHED,696e824812786c0f3a8b7680,696ebbfb24c93378939d9785,N,N,SINGLE_CONTROL,dislikes,single
Y,prefer,PR20,PREFER_DIFFERENT,Mary-the-Nomad prefers to eat a steak rather than a brownie,preference,accepts_vs_dislikes,AB,gt,Y,a steak,a brownie,accepts,dislikes,Nomad,Your answer is correct. Mary-the-Nomad always prefers meat to sweets.,Your answer is incorrect. Mary-the-Nomad always prefers meat to sweets.,6053,a steak rather than a brownie,b,html-keyboard-response,70,2.1.0,202430,PRACTICE,695fcea7a80091f158646750,2531,b86f8bd6-71b8-4e7e-a46b-bdcbcfae58ee,2404,1768864783500,1768865638561,00:14:15,FINISHED,696e824812786c0f3a8b7680,696ebbfb24c93378939d9785,Y,Y,PREFER_DIFFERENT,accepts_vs_dislikes,AB
N,prefer,PR26,PREFER_SAME,Donna-the-Urbanite prefers to eat a muffin rather than a cake,preference,wants_vs_wants,AB,eq,N,a muffin,a cake,wants,wants,Urbanite,Your answer is correct. Donna-the-Urbanite equally likes a muffin and a cake.,Your answer is incorrect. Donna-the-Urbanite equally likes a muffin and a cake.,1514,a muffin rather than a cake,n,html-keyboard-response,76,2.1.0,209312,PRACTICE,695fcea7a80091f158646750,2531,b86f8bd6-71b8-4e7e-a46b-bdcbcfae58ee,2404,1768864783500,1768865638561,00:14:15,FINISHED,696e824812786c0f3a8b7680,696ebbfb24c93378939d9785,N,N,PREFER_SAME,wants_vs_wants,AB
N,want,PR14,DOUBLE_CONTROL,Matthew-the-Nomad wants to eat a cupcake or a lollipop,disjunction,dislikes|dislikes,AB,,N,a cupcake,a lollipop,dislikes,dislikes,Nomad,Your answer is correct. Matthew-the-Nomad never wants to eat sweets.,Your answer is incorrect. Matthew-the-Nomad never wants to eat sweets.,3481,a cupcake or a lollipop,n,html-keyboard-response,82,2.1.0,217220,PRACTICE,695fcea7a80091f158646750,2531,b86f8bd6-71b8-4e7e-a46b-bdcbcfae58ee,2404,1768864783500,1768865638561,00:14:15,FINISHED,696e824812786c0f3a8b7680,696ebbfb24c93378939d9785,N,N,DOUBLE_CONTROL,dislikes|dislikes,AB
N,prefer,PR23,PREFER_DIFFERENT,Karen-the-Nomad prefers to eat a kebab rather than an apple,preference,accepts_vs_wants,BA,lt,N,a kebab,an apple,accepts,wants,Nomad,Your answer is correct. Karen-the-Nomad never prefers meat to fruit.,Your answer is incorrect. Karen-the-Nomad never prefers meat to fruit.,2474,a kebab rather than an apple,n,html-keyboard-response,88,2.1.0,224261,PRACTICE,695fcea7a80091f158646750,2531,b86f8bd6-71b8-4e7e-a46b-bdcbcfae58ee,2404,1768864783500,1768865638561,00:14:15,FINISHED,696e824812786c0f3a8b7680,696ebbfb24c93378939d9785,N,N,PREFER_DIFFERENT,accepts_vs_wants,BA
N,prefer,PR17,PREFER_DIFFERENT,Susan-the-Urbanite prefers to eat an orange rather than ribs,preference,dislikes_vs_accepts,BA,lt,N,an orange,ribs,dislikes,accepts,Urbanite,Your answer is correct. Susan-the-Urbanite never prefers fruit to meat.,Your answer is incorrect. Susan-the-Urbanite never prefers fruit to meat.,2488,an orange rather than ribs,n,html-keyboard-response,94,2.1.0,231046,PRACTICE,695fcea7a80091f158646750,2531,b86f8bd6-71b8-4e7e-a46b-bdcbcfae58ee,2404,1768864783500,1768865638561,00:14:15,FINISHED,696e824812786c0f3a8b7680,696ebbfb24c93378939d9785,N,N,PREFER_DIFFERENT,dislikes_vs_accepts,BA
N,prefer,PR25,PREFER_SAME,Steven-the-Urbanite prefers to eat a meatloaf rather than a sausage,preference,accepts_vs_accepts,AB,eq,N,a meatloaf,a sausage,accepts,accepts,Urbanite,Your answer is correct. Steven-the-Urbanite equally likes a meatloaf and a sausage.,Your answer is incorrect. Steven-the-Urbanite equally likes a meatloaf and a sausage.,1777,a meatloaf rather than a sausage,n,html-keyboard-response,100,2.1.0,237671,PRACTICE,695fcea7a80091f158646750,2531,b86f8bd6-71b8-4e7e-a46b-bdcbcfae58ee,2404,1768864783500,1768865638561,00:14:15,FINISHED,696e824812786c0f3a8b7680,696ebbfb24c93378939d9785,N,N,PREFER_SAME,accepts_vs_accepts,AB
N,want,PR7,SINGLE_CONTROL,Daniel-the-Nomad wants to eat caramel,single,dislikes,single,,N,caramel,,dislikes,,Nomad,Your answer is correct. Daniel-the-Nomad never wants to eat sweets.,Your answer is incorrect. Daniel-the-Nomad never wants to eat sweets.,1495,caramel,n,html-keyboard-response,106,2.1.0,243381,PRACTICE,695fcea7a80091f158646750,2531,b86f8bd6-71b8-4e7e-a46b-bdcbcfae58ee,2404,1768864783500,1768865638561,00:14:15,FINISHED,696e824812786c0f3a8b7680,696ebbfb24c93378939d9785,N,N,SINGLE_CONTROL,dislikes,single
N,prefer,PR21,PREFER_DIFFERENT,Lisa-the-Nomad prefers to eat a chocolate rather than a burger,preference,dislikes_vs_accepts,BA,lt,N,a chocolate,a burger,dislikes,accepts,Nomad,Your answer is correct. Lisa-the-Nomad never prefers sweets to meat.,Your answer is incorrect. Lisa-the-Nomad never prefers sweets to meat.,1382,a chocolate rather than a burger,n,html-keyboard-response,112,2.1.0,248773,PRACTICE,695fcea7a80091f158646750,2531,b86f8bd6-71b8-4e7e-a46b-bdcbcfae58ee,2404,1768864783500,1768865638561,00:14:15,FINISHED,696e824812786c0f3a8b7680,696ebbfb24c93378939d9785,N,N,PREFER_DIFFERENT,dislikes_vs_accepts,BA
Y,want,PR12,DOUBLE_CONTROL,Linda-the-Nomad wants to eat a cranberry or a grapefruit,disjunction,wants|wants,AB,,Y,a cranberry,a grapefruit,wants,wants,Nomad,Your answer is correct. Linda-the-Nomad always wants to eat fruit.,Your answer is incorrect. Linda-the-Nomad always wants to eat fruit.,2754,a cranberry or a grapefruit,b,html-keyboard-response,118,2.1.0,255076,PRACTICE,695fcea7a80091f158646750,2531,b86f8bd6-71b8-4e7e-a46b-bdcbcfae58ee,2404,1768864783500,1768865638561,00:14:15,FINISHED,696e824812786c0f3a8b7680,696ebbfb24c93378939d9785,Y,Y,DOUBLE_CONTROL,wants|wants,AB
N,want,PR2,SINGLE_CONTROL,Christopher-the-Urbanite wants to eat a cranberry,single,dislikes,single,,N,a cranberry,,dislikes,,Urbanite,Your answer is correct. Christopher-the-Urbanite never wants to eat fruit.,Your answer is incorrect. Christopher-the-Urbanite never wants to eat fruit.,1106,a cranberry,n,html-keyboard-response,124,2.1.0,260399,PRACTICE,695fcea7a80091f158646750,2531,b86f8bd6-71b8-4e7e-a46b-bdcbcfae58ee,2404,1768864783500,1768865638561,00:14:15,FINISHED,696e824812786c0f3a8b7680,696ebbfb24c93378939d9785,N,N,SINGLE_CONTROL,dislikes,single
Y,want,PR1,SINGLE_CONTROL,Michael-the-Urbanite wants to eat a cookie,single,wants,single,,Y,a cookie,,wants,,Urbanite,Your answer is correct. Michael-the-Urbanite always wants to eat sweets.,Your answer is incorrect. Michael-the-Urbanite always wants to eat sweets.,1176,a cookie,b,html-keyboard-response,130,2.1.0,265868,PRACTICE,695fcea7a80091f158646750,2531,b86f8bd6-71b8-4e7e-a46b-bdcbcfae58ee,2404,1768864783500,1768865638561,00:14:15,FINISHED,696e824812786c0f3a8b7680,696ebbfb24c93378939d9785,Y,Y,SINGLE_CONTROL,wants,single
N,want,PR11,DOUBLE_CONTROL,Sarah-the-Urbanite wants to eat a strawberry or a grapefruit,disjunction,dislikes|dislikes,BA,,N,a strawberry,a grapefruit,dislikes,dislikes,Urbanite,Your answer is correct. Sarah-the-Urbanite never wants to eat fruit.,Your answer is incorrect. Sarah-the-Urbanite never wants to eat fruit.,1192,a strawberry or a grapefruit,n,html-keyboard-response,136,2.1.0,271714,PRACTICE,695fcea7a80091f158646750,2531,b86f8bd6-71b8-4e7e-a46b-bdcbcfae58ee,2404,1768864783500,1768865638561,00:14:15,FINISHED,696e824812786c0f3a8b7680,696ebbfb24c93378939d9785,N,N,DOUBLE_CONTROL,dislikes|dislikes,BA
Y,want,PR4,SINGLE_CONTROL,Barbara-the-Nomad wants to eat a pear,single,wants,single,,Y,a pear,,wants,,Nomad,Your answer is correct. Barbara-the-Nomad always wants to eat fruit.,Your answer is incorrect. Barbara-the-Nomad always wants to eat fruit.,2014,a pear,b,html-keyboard-response,142,2.1.0,278082,PRACTICE,695fcea7a80091f158646750,2531,b86f8bd6-71b8-4e7e-a46b-bdcbcfae58ee,2404,1768864783500,1768865638561,00:14:15,FINISHED,696e824812786c0f3a8b7680,696ebbfb24c93378939d9785,Y,Y,SINGLE_CONTROL,wants,single
Y,want,PR13,DOUBLE_CONTROL,Andrew-the-Nomad wants to eat a cranberry or an apple,disjunction,wants|wants,BA,,Y,a cranberry,an apple,wants,wants,Nomad,Your answer is correct. Andrew-the-Nomad always wants to eat fruit.,Your answer is incorrect. Andrew-the-Nomad always wants to eat fruit.,2723,a cranberry or an apple,b,html-keyboard-response,148,2.1.0,284692,PRACTICE,695fcea7a80091f158646750,2531,b86f8bd6-71b8-4e7e-a46b-bdcbcfae58ee,2404,1768864783500,1768865638561,00:14:15,FINISHED,696e824812786c0f3a8b7680,696ebbfb24c93378939d9785,Y,Y,DOUBLE_CONTROL,wants|wants,BA
N,want,PR10,DOUBLE_CONTROL,Patricia-the-Urbanite wants to eat a strawberry or a peach,disjunction,dislikes|dislikes,AB,,N,a strawberry,a peach,dislikes,dislikes,Urbanite,Your answer is correct. Patricia-the-Urbanite never wants to eat fruit.,Your answer is incorrect. Patricia-the-Urbanite never wants to eat fruit.,922,a strawberry or a peach,n,html-keyboard-response,154,2.1.0,289298,PRACTICE,695fcea7a80091f158646750,2531,b86f8bd6-71b8-4e7e-a46b-bdcbcfae58ee,2404,1768864783500,1768865638561,00:14:15,FINISHED,696e824812786c0f3a8b7680,696ebbfb24c93378939d9785,N,N,DOUBLE_CONTROL,dislikes|dislikes,AB
N,want,PR6,SINGLE_CONTROL,Nancy-the-Nomad wants to eat a muffin,single,dislikes,single,,N,a muffin,,dislikes,,Nomad,Your answer is correct. Nancy-the-Nomad never wants to eat sweets.,Your answer is incorrect. Nancy-the-Nomad never wants to eat sweets.,1023,a muffin,n,html-keyboard-response,160,2.1.0,294241,PRACTICE,695fcea7a80091f158646750,2531,b86f8bd6-71b8-4e7e-a46b-bdcbcfae58ee,2404,1768864783500,1768865638561,00:14:15,FINISHED,696e824812786c0f3a8b7680,696ebbfb24c93378939d9785,N,N,SINGLE_CONTROL,dislikes,single
N,prefer,PR31,PREFER_SAME,Jessica-the-Nomad prefers to eat a grapefruit rather than a strawberry,preference,wants_vs_wants,AB,eq,N,a grapefruit,a strawberry,wants,wants,Nomad,Your answer is correct. Jessica-the-Nomad equally likes a grapefruit and a strawberry.,Your answer is incorrect. Jessica-the-Nomad equally likes a grapefruit and a strawberry.,1978,a grapefruit rather than a strawberry,n,html-keyboard-response,166,2.1.0,299964,PRACTICE,695fcea7a80091f158646750,2531,b86f8bd6-71b8-4e7e-a46b-bdcbcfae58ee,2404,1768864783500,1768865638561,00:14:15,FINISHED,696e824812786c0f3a8b7680,696ebbfb24c93378939d9785,N,N,PREFER_SAME,wants_vs_wants,AB
Y,prefer,PR18,PREFER_DIFFERENT,Anthony-the-Urbanite prefers to eat a donut rather than ribs,preference,wants_vs_accepts,AB,gt,Y,a donut,ribs,wants,accepts,Urbanite,Your answer is correct. Anthony-the-Urbanite always prefers sweets to meat.,Your answer is incorrect. Anthony-the-Urbanite always prefers sweets to meat.,1413,a donut rather than ribs,b,html-keyboard-response,172,2.1.0,305164,PRACTICE,695fcea7a80091f158646750,2531,b86f8bd6-71b8-4e7e-a46b-bdcbcfae58ee,2404,1768864783500,1768865638561,00:14:15,FINISHED,696e824812786c0f3a8b7680,696ebbfb24c93378939d9785,Y,Y,PREFER_DIFFERENT,wants_vs_accepts,AB
N,prefer,PR24,PREFER_SAME,Joshua-the-Urbanite prefers to eat a sausage rather than a meatball,preference,accepts_vs_accepts,AB,eq,N,a sausage,a meatball,accepts,accepts,Urbanite,Your answer is correct. Joshua-the-Urbanite equally likes a sausage and a meatball.,Your answer is incorrect. Joshua-the-Urbanite equally likes a sausage and a meatball.,1470,a sausage rather than a meatball,n,html-keyboard-response,178,2.1.0,310345,PRACTICE,695fcea7a80091f158646750,2531,b86f8bd6-71b8-4e7e-a46b-bdcbcfae58ee,2404,1768864783500,1768865638561,00:14:15,FINISHED,696e824812786c0f3a8b7680,696ebbfb24c93378939d9785,N,N,PREFER_SAME,accepts_vs_accepts,AB
N,want,PR15,DOUBLE_CONTROL,Sandra-the-Nomad wants to eat a cupcake or a cake,disjunction,dislikes|dislikes,BA,,N,a cupcake,a cake,dislikes,dislikes,Nomad,Your answer is correct. Sandra-the-Nomad never wants to eat sweets.,Your answer is incorrect. Sandra-the-Nomad never wants to eat sweets.,1553,a cupcake or a cake,n,html-keyboard-response,184,2.1.0,315525,PRACTICE,695fcea7a80091f158646750,2531,b86f8bd6-71b8-4e7e-a46b-bdcbcfae58ee,2404,1768864783500,1768865638561,00:14:15,FINISHED,696e824812786c0f3a8b7680,696ebbfb24c93378939d9785,N,N,DOUBLE_CONTROL,dislikes|dislikes,BA
Y,prefer,PR22,PREFER_DIFFERENT,Kimberly-the-Nomad prefers to eat a cranberry rather than a burger,preference,wants_vs_accepts,AB,gt,Y,a cranberry,a burger,wants,accepts,Nomad,Your answer is correct. Kimberly-the-Nomad always prefers fruit to meat.,Your answer is incorrect. Kimberly-the-Nomad always prefers fruit to meat.,1865,a cranberry rather than a burger,b,html-keyboard-response,190,2.1.0,320648,PRACTICE,695fcea7a80091f158646750,2531,b86f8bd6-71b8-4e7e-a46b-bdcbcfae58ee,2404,1768864783500,1768865638561,00:14:15,FINISHED,696e824812786c0f3a8b7680,696ebbfb24c93378939d9785,Y,Y,PREFER_DIFFERENT,wants_vs_accepts,AB
N,want,SC9,SINGLE_CONTROL,Margaret-the-Nomad wants to eat a brownie,single,dislikes,single,,N,a brownie,,dislikes,,Nomad,,,1176,a brownie,n,html-keyboard-response,197,2.1.0,336468,EXPERIMENTAL,695fcea7a80091f158646750,2531,b86f8bd6-71b8-4e7e-a46b-bdcbcfae58ee,2404,1768864783500,1768865638561,00:14:15,FINISHED,696e824812786c0f3a8b7680,696ebbfb24c93378939d9785,N,N,SINGLE_CONTROL,dislikes,single
Y,prefer,PD72,PREFER_DIFFERENT,David-the-Nomad prefers to eat a cranberry rather than a burger,preference,wants_vs_accepts,AB,gt,Y,a cranberry,a burger,wants,accepts,Nomad,,,1419,a cranberry rather than a burger,b,html-keyboard-response,202,2.1.0,340422,EXPERIMENTAL,695fcea7a80091f158646750,2531,b86f8bd6-71b8-4e7e-a46b-bdcbcfae58ee,2404,1768864783500,1768865638561,00:14:15,FINISHED,696e824812786c0f3a8b7680,696ebbfb24c93378939d9785,Y,Y,PREFER_DIFFERENT,wants_vs_accepts,AB
N,prefer,PS85,PREFER_SAME,Elizabeth-the-Nomad prefers to eat a meatloaf rather than a sausage,preference,accepts_vs_accepts,AB,eq,N,a meatloaf,a sausage,accepts,accepts,Nomad,,,1278,a meatloaf rather than a sausage,n,html-keyboard-response,207,2.1.0,344235,EXPERIMENTAL,695fcea7a80091f158646750,2531,b86f8bd6-71b8-4e7e-a46b-bdcbcfae58ee,2404,1768864783500,1768865638561,00:14:15,FINISHED,696e824812786c0f3a8b7680,696ebbfb24c93378939d9785,N,N,PREFER_SAME,accepts_vs_accepts,AB
N,want,DC25,DOUBLE_CONTROL,Steven-the-Urbanite wants to eat a meatloaf or a sausage,disjunction,accepts|accepts,AB,,N,a meatloaf,a sausage,accepts,accepts,Urbanite,,,2884,a meatloaf or a sausage,b,html-keyboard-response,212,2.1.0,349660,EXPERIMENTAL,695fcea7a80091f158646750,2531,b86f8bd6-71b8-4e7e-a46b-bdcbcfae58ee,2404,1768864783500,1768865638561,00:14:15,FINISHED,696e824812786c0f3a8b7680,696ebbfb24c93378939d9785,N,N,DOUBLE_CONTROL,accepts|accepts,AB
N,prefer,PD57,PREFER_DIFFERENT,Susan-the-Urbanite prefers to eat an orange rather than ribs,preference,dislikes_vs_accepts,BA,lt,N,an orange,ribs,dislikes,accepts,Urbanite,,,2347,an orange rather than ribs,n,html-keyboard-response,217,2.1.0,354531,EXPERIMENTAL,695fcea7a80091f158646750,2531,b86f8bd6-71b8-4e7e-a46b-bdcbcfae58ee,2404,1768864783500,1768865638561,00:14:15,FINISHED,696e824812786c0f3a8b7680,696ebbfb24c93378939d9785,N,N,PREFER_DIFFERENT,dislikes_vs_accepts,BA
Y,want,DC34,DOUBLE_CONTROL,Thomas-the-Urbanite wants to eat a lollipop or a cupcake,disjunction,wants|wants,BA,,Y,a lollipop,a cupcake,wants,wants,Urbanite,,,2409,a lollipop or a cupcake,b,html-keyboard-response,222,2.1.0,359491,EXPERIMENTAL,695fcea7a80091f158646750,2531,b86f8bd6-71b8-4e7e-a46b-bdcbcfae58ee,2404,1768864783500,1768865638561,00:14:15,FINISHED,696e824812786c0f3a8b7680,696ebbfb24c93378939d9785,Y,Y,DOUBLE_CONTROL,wants|wants,BA
N,want,DC42,DOUBLE_CONTROL,Christopher-the-Nomad wants to eat a kebab or a burger,disjunction,accepts|accepts,AB,,N,a kebab,a burger,accepts,accepts,Nomad,,,2204,a kebab or a burger,b,html-keyboard-response,227,2.1.0,364220,EXPERIMENTAL,695fcea7a80091f158646750,2531,b86f8bd6-71b8-4e7e-a46b-bdcbcfae58ee,2404,1768864783500,1768865638561,00:14:15,FINISHED,696e824812786c0f3a8b7680,696ebbfb24c93378939d9785,N,N,DOUBLE_CONTROL,accepts|accepts,AB
Y/N,want,EX108,EXPERIMENTAL,Robert-the-Nomad wants to eat a plum or pork,disjunction,wants|accepts,AB,,NA,a plum,pork,wants,accepts,Nomad,,,5972,a plum or pork,b,html-keyboard-response,232,2.1.0,372739,EXPERIMENTAL,695fcea7a80091f158646750,2531,b86f8bd6-71b8-4e7e-a46b-bdcbcfae58ee,2404,1768864783500,1768865638561,00:14:15,FINISHED,696e824812786c0f3a8b7680,696ebbfb24c93378939d9785,Y/N,NA,EXPERIMENTAL,wants|accepts,AB
Y/N,want,EX101,EXPERIMENTAL,Lisa-the-Urbanite wants to eat a burger or a cookie,disjunction,wants|accepts,BA,,NA,a burger,a cookie,accepts,wants,Urbanite,,,2314,a burger or a cookie,b,html-keyboard-response,237,2.1.0,377580,EXPERIMENTAL,695fcea7a80091f158646750,2531,b86f8bd6-71b8-4e7e-a46b-bdcbcfae58ee,2404,1768864783500,1768865638561,00:14:15,FINISHED,696e824812786c0f3a8b7680,696ebbfb24c93378939d9785,Y/N,NA,EXPERIMENTAL,wants|accepts,BA
N,prefer,PD69,PREFER_DIFFERENT,James-the-Nomad prefers to eat a donut rather than beef,preference,dislikes_vs_accepts,BA,lt,N,a donut,beef,dislikes,accepts,Nomad,,,3198,a donut rather than beef,n,html-keyboard-response,242,2.1.0,383314,EXPERIMENTAL,695fcea7a80091f158646750,2531,b86f8bd6-71b8-4e7e-a46b-bdcbcfae58ee,2404,1768864783500,1768865638561,00:14:15,FINISHED,696e824812786c0f3a8b7680,696ebbfb24c93378939d9785,N,N,PREFER_DIFFERENT,dislikes_vs_accepts,BA
Y/N,want,EX96,EXPERIMENTAL,Ashley-the-Urbanite wants to eat a muffin or a hotdog,disjunction,wants|accepts,AB,,NA,a muffin,a hotdog,wants,accepts,Urbanite,,,2778,a muffin or a hotdog,b,html-keyboard-response,247,2.1.0,388628,EXPERIMENTAL,695fcea7a80091f158646750,2531,b86f8bd6-71b8-4e7e-a46b-bdcbcfae58ee,2404,1768864783500,1768865638561,00:14:15,FINISHED,696e824812786c0f3a8b7680,696ebbfb24c93378939d9785,Y/N,NA,EXPERIMENTAL,wants|accepts,AB
Y/N,want,EX106,EXPERIMENTAL,Donna-the-Nomad wants to eat a muffin or an orange,disjunction,wants|dislikes,BA,,NA,a muffin,an orange,dislikes,wants,Nomad,,,2444,a muffin or an orange,n,html-keyboard-response,252,2.1.0,393597,EXPERIMENTAL,695fcea7a80091f158646750,2531,b86f8bd6-71b8-4e7e-a46b-bdcbcfae58ee,2404,1768864783500,1768865638561,00:14:15,FINISHED,696e824812786c0f3a8b7680,696ebbfb24c93378939d9785,Y/N,NA,EXPERIMENTAL,wants|dislikes,BA
Y,prefer,PD68,PREFER_DIFFERENT,Robert-the-Nomad prefers to eat pork rather than caramel,preference,accepts_vs_dislikes,AB,gt,Y,pork,caramel,accepts,dislikes,Nomad,,,1788,pork rather than caramel,b,html-keyboard-response,257,2.1.0,397909,EXPERIMENTAL,695fcea7a80091f158646750,2531,b86f8bd6-71b8-4e7e-a46b-bdcbcfae58ee,2404,1768864783500,1768865638561,00:14:15,FINISHED,696e824812786c0f3a8b7680,696ebbfb24c93378939d9785,Y,Y,PREFER_DIFFERENT,accepts_vs_dislikes,AB
Y,prefer,PD74,PREFER_DIFFERENT,Thomas-the-Nomad prefers to eat a pear rather than a meatball,preference,wants_vs_accepts,AB,gt,Y,a pear,a meatball,wants,accepts,Nomad,,,2545,a pear rather than a meatball,b,html-keyboard-response,262,2.1.0,402979,EXPERIMENTAL,695fcea7a80091f158646750,2531,b86f8bd6-71b8-4e7e-a46b-bdcbcfae58ee,2404,1768864783500,1768865638561,00:14:15,FINISHED,696e824812786c0f3a8b7680,696ebbfb24c93378939d9785,Y,Y,PREFER_DIFFERENT,wants_vs_accepts,AB
Y/N,want,EX91,EXPERIMENTAL,Sarah-the-Urbanite wants to eat a cookie or a grapefruit,disjunction,wants|dislikes,AB,,NA,a cookie,a grapefruit,wants,dislikes,Urbanite,,,2306,a cookie or a grapefruit,n,html-keyboard-response,267,2.1.0,407807,EXPERIMENTAL,695fcea7a80091f158646750,2531,b86f8bd6-71b8-4e7e-a46b-bdcbcfae58ee,2404,1768864783500,1768865638561,00:14:15,FINISHED,696e824812786c0f3a8b7680,696ebbfb24c93378939d9785,Y/N,NA,EXPERIMENTAL,wants|dislikes,AB
Y/N,want,EX90,EXPERIMENTAL,Patricia-the-Urbanite wants to eat a chocolate or a strawberry,disjunction,wants|dislikes,AB,,NA,a chocolate,a strawberry,wants,dislikes,Urbanite,,,1247,a chocolate or a strawberry,n,html-keyboard-response,272,2.1.0,411598,EXPERIMENTAL,695fcea7a80091f158646750,2531,b86f8bd6-71b8-4e7e-a46b-bdcbcfae58ee,2404,1768864783500,1768865638561,00:14:15,FINISHED,696e824812786c0f3a8b7680,696ebbfb24c93378939d9785,Y/N,NA,EXPERIMENTAL,wants|dislikes,AB
Y,prefer,PD60,PREFER_DIFFERENT,Mary-the-Urbanite prefers to eat a chocolate rather than beef,preference,wants_vs_accepts,AB,gt,Y,a chocolate,beef,wants,accepts,Urbanite,,,1293,a chocolate rather than beef,b,html-keyboard-response,277,2.1.0,415429,EXPERIMENTAL,695fcea7a80091f158646750,2531,b86f8bd6-71b8-4e7e-a46b-bdcbcfae58ee,2404,1768864783500,1768865638561,00:14:15,FINISHED,696e824812786c0f3a8b7680,696ebbfb24c93378939d9785,Y,Y,PREFER_DIFFERENT,wants_vs_accepts,AB
Y,want,SC17,SINGLE_CONTROL,Susan-the-Nomad wants to eat a mango,single,wants,single,,Y,a mango,,wants,,Nomad,,,1049,a mango,b,html-keyboard-response,282,2.1.0,419021,EXPERIMENTAL,695fcea7a80091f158646750,2531,b86f8bd6-71b8-4e7e-a46b-bdcbcfae58ee,2404,1768864783500,1768865638561,00:14:15,FINISHED,696e824812786c0f3a8b7680,696ebbfb24c93378939d9785,Y,Y,SINGLE_CONTROL,wants,single
Y/N,want,EX98,EXPERIMENTAL,Anthony-the-Urbanite wants to eat a donut or pork,disjunction,wants|accepts,AB,,NA,a donut,pork,wants,accepts,Urbanite,,,4623,a donut or pork,b,html-keyboard-response,287,2.1.0,426170,EXPERIMENTAL,695fcea7a80091f158646750,2531,b86f8bd6-71b8-4e7e-a46b-bdcbcfae58ee,2404,1768864783500,1768865638561,00:14:15,FINISHED,696e824812786c0f3a8b7680,696ebbfb24c93378939d9785,Y/N,NA,EXPERIMENTAL,wants|accepts,AB
N,want,DC21,DOUBLE_CONTROL,Lisa-the-Urbanite wants to eat a strawberry or a grapefruit,disjunction,dislikes|dislikes,BA,,N,a strawberry,a grapefruit,dislikes,dislikes,Urbanite,,,1292,a strawberry or a grapefruit,n,html-keyboard-response,292,2.1.0,429993,EXPERIMENTAL,695fcea7a80091f158646750,2531,b86f8bd6-71b8-4e7e-a46b-bdcbcfae58ee,2404,1768864783500,1768865638561,00:14:15,FINISHED,696e824812786c0f3a8b7680,696ebbfb24c93378939d9785,N,N,DOUBLE_CONTROL,dislikes|dislikes,BA
Y/N,want,EX93,EXPERIMENTAL,Andrew-the-Urbanite wants to eat an apple or a lollipop,disjunction,wants|dislikes,BA,,NA,an apple,a lollipop,dislikes,wants,Urbanite,,,1664,an apple or a lollipop,n,html-keyboard-response,297,2.1.0,434184,EXPERIMENTAL,695fcea7a80091f158646750,2531,b86f8bd6-71b8-4e7e-a46b-bdcbcfae58ee,2404,1768864783500,1768865638561,00:14:15,FINISHED,696e824812786c0f3a8b7680,696ebbfb24c93378939d9785,Y/N,NA,EXPERIMENTAL,wants|dislikes,BA
N,prefer,PD75,PREFER_DIFFERENT,Mark-the-Nomad prefers to eat a sausage rather than a cherry,preference,accepts_vs_wants,BA,lt,N,a sausage,a cherry,accepts,wants,Nomad,,,1861,a sausage rather than a cherry,n,html-keyboard-response,302,2.1.0,438582,EXPERIMENTAL,695fcea7a80091f158646750,2531,b86f8bd6-71b8-4e7e-a46b-bdcbcfae58ee,2404,1768864783500,1768865638561,00:14:15,FINISHED,696e824812786c0f3a8b7680,696ebbfb24c93378939d9785,N,N,PREFER_DIFFERENT,accepts_vs_wants,BA
Y,want,DC33,DOUBLE_CONTROL,Richard-the-Urbanite wants to eat a biscuit or a lollipop,disjunction,wants|wants,BA,,Y,a biscuit,a lollipop,wants,wants,Urbanite,,,6648,a biscuit or a lollipop,b,html-keyboard-response,307,2.1.0,447770,EXPERIMENTAL,695fcea7a80091f158646750,2531,b86f8bd6-71b8-4e7e-a46b-bdcbcfae58ee,2404,1768864783500,1768865638561,00:14:15,FINISHED,696e824812786c0f3a8b7680,696ebbfb24c93378939d9785,Y,Y,DOUBLE_CONTROL,wants|wants,BA
N,want,SC1,SINGLE_CONTROL,Michael-the-Urbanite wants to eat a grapefruit,single,dislikes,single,,N,a grapefruit,,dislikes,,Urbanite,,,743,a grapefruit,n,html-keyboard-response,312,2.1.0,451053,EXPERIMENTAL,695fcea7a80091f158646750,2531,b86f8bd6-71b8-4e7e-a46b-bdcbcfae58ee,2404,1768864783500,1768865638561,00:14:15,FINISHED,696e824812786c0f3a8b7680,696ebbfb24c93378939d9785,N,N,SINGLE_CONTROL,dislikes,single
N,want,DC24,DOUBLE_CONTROL,Joshua-the-Urbanite wants to eat a sausage or a meatball,disjunction,accepts|accepts,AB,,N,a sausage,a meatball,accepts,accepts,Urbanite,,,1197,a sausage or a meatball,b,html-keyboard-response,317,2.1.0,454778,EXPERIMENTAL,695fcea7a80091f158646750,2531,b86f8bd6-71b8-4e7e-a46b-bdcbcfae58ee,2404,1768864783500,1768865638561,00:14:15,FINISHED,696e824812786c0f3a8b7680,696ebbfb24c93378939d9785,N,N,DOUBLE_CONTROL,accepts|accepts,AB
N,want,DC29,DOUBLE_CONTROL,James-the-Urbanite wants to eat pork or beef,disjunction,accepts|accepts,BA,,N,pork,beef,accepts,accepts,Urbanite,,,884,pork or beef,b,html-keyboard-response,322,2.1.0,458192,EXPERIMENTAL,695fcea7a80091f158646750,2531,b86f8bd6-71b8-4e7e-a46b-bdcbcfae58ee,2404,1768864783500,1768865638561,00:14:15,FINISHED,696e824812786c0f3a8b7680,696ebbfb24c93378939d9785,N,N,DOUBLE_CONTROL,accepts|accepts,BA
N,want,DC40,DOUBLE_CONTROL,Charles-the-Nomad wants to eat a brownie or a chocolate,disjunction,dislikes|dislikes,BA,,N,a brownie,a chocolate,dislikes,dislikes,Nomad,,,1042,a brownie or a chocolate,n,html-keyboard-response,327,2.1.0,461772,EXPERIMENTAL,695fcea7a80091f158646750,2531,b86f8bd6-71b8-4e7e-a46b-bdcbcfae58ee,2404,1768864783500,1768865638561,00:14:15,FINISHED,696e824812786c0f3a8b7680,696ebbfb24c93378939d9785,N,N,DOUBLE_CONTROL,dislikes|dislikes,BA
Y/N,want,EX97,EXPERIMENTAL,Susan-the-Urbanite wants to eat caramel or ribs,disjunction,wants|accepts,AB,,NA,caramel,ribs,wants,accepts,Urbanite,,,2292,caramel or ribs,b,html-keyboard-response,332,2.1.0,466598,EXPERIMENTAL,695fcea7a80091f158646750,2531,b86f8bd6-71b8-4e7e-a46b-bdcbcfae58ee,2404,1768864783500,1768865638561,00:14:15,FINISHED,696e824812786c0f3a8b7680,696ebbfb24c93378939d9785,Y/N,NA,EXPERIMENTAL,wants|accepts,AB
N,prefer,PS79,PREFER_SAME,Joseph-the-Urbanite prefers to eat beef rather than pork,preference,accepts_vs_accepts,AB,eq,N,beef,pork,accepts,accepts,Urbanite,,,2450,beef rather than pork,n,html-keyboard-response,337,2.1.0,471582,EXPERIMENTAL,695fcea7a80091f158646750,2531,b86f8bd6-71b8-4e7e-a46b-bdcbcfae58ee,2404,1768864783500,1768865638561,00:14:15,FINISHED,696e824812786c0f3a8b7680,696ebbfb24c93378939d9785,N,N,PREFER_SAME,accepts_vs_accepts,AB
N,want,SC0,SINGLE_CONTROL,Charles-the-Urbanite wants to eat a strawberry,single,dislikes,single,,N,a strawberry,,dislikes,,Urbanite,,,977,a strawberry,n,html-keyboard-response,342,2.1.0,475087,EXPERIMENTAL,695fcea7a80091f158646750,2531,b86f8bd6-71b8-4e7e-a46b-bdcbcfae58ee,2404,1768864783500,1768865638561,00:14:15,FINISHED,696e824812786c0f3a8b7680,696ebbfb24c93378939d9785,N,N,SINGLE_CONTROL,dislikes,single
N,want,DC41,DOUBLE_CONTROL,Michael-the-Nomad wants to eat a chocolate or a cookie,disjunction,dislikes|dislikes,BA,,N,a chocolate,a cookie,dislikes,dislikes,Nomad,,,947,a chocolate or a cookie,n,html-keyboard-response,347,2.1.0,478573,EXPERIMENTAL,695fcea7a80091f158646750,2531,b86f8bd6-71b8-4e7e-a46b-bdcbcfae58ee,2404,1768864783500,1768865638561,00:14:15,FINISHED,696e824812786c0f3a8b7680,696ebbfb24c93378939d9785,N,N,DOUBLE_CONTROL,dislikes|dislikes,BA
N,want,DC39,DOUBLE_CONTROL,Joseph-the-Nomad wants to eat a donut or a brownie,disjunction,dislikes|dislikes,BA,,N,a donut,a brownie,dislikes,dislikes,Nomad,,,733,a donut or a brownie,n,html-keyboard-response,352,2.1.0,481824,EXPERIMENTAL,695fcea7a80091f158646750,2531,b86f8bd6-71b8-4e7e-a46b-bdcbcfae58ee,2404,1768864783500,1768865638561,00:14:15,FINISHED,696e824812786c0f3a8b7680,696ebbfb24c93378939d9785,N,N,DOUBLE_CONTROL,dislikes|dislikes,BA
Y,prefer,PD61,PREFER_DIFFERENT,Lisa-the-Urbanite prefers to eat a cookie rather than a steak,preference,wants_vs_accepts,AB,gt,Y,a cookie,a steak,wants,accepts,Urbanite,,,1276,a cookie rather than a steak,b,html-keyboard-response,357,2.1.0,485637,EXPERIMENTAL,695fcea7a80091f158646750,2531,b86f8bd6-71b8-4e7e-a46b-bdcbcfae58ee,2404,1768864783500,1768865638561,00:14:15,FINISHED,696e824812786c0f3a8b7680,696ebbfb24c93378939d9785,Y,Y,PREFER_DIFFERENT,wants_vs_accepts,AB
N,prefer,PD65,PREFER_DIFFERENT,Steven-the-Urbanite prefers to eat a sausage rather than a cake,preference,accepts_vs_wants,BA,lt,N,a sausage,a cake,accepts,wants,Urbanite,,,4861,a sausage rather than a cake,n,html-keyboard-response,362,2.1.0,493029,EXPERIMENTAL,695fcea7a80091f158646750,2531,b86f8bd6-71b8-4e7e-a46b-bdcbcfae58ee,2404,1768864783500,1768865638561,00:14:15,FINISHED,696e824812786c0f3a8b7680,696ebbfb24c93378939d9785,N,N,PREFER_DIFFERENT,accepts_vs_wants,BA
Y/N,want,EX103,EXPERIMENTAL,Karen-the-Nomad wants to eat an apple or a lollipop,disjunction,wants|dislikes,AB,,NA,an apple,a lollipop,wants,dislikes,Nomad,,,1469,an apple or a lollipop,n,html-keyboard-response,367,2.1.0,497035,EXPERIMENTAL,695fcea7a80091f158646750,2531,b86f8bd6-71b8-4e7e-a46b-bdcbcfae58ee,2404,1768864783500,1768865638561,00:14:15,FINISHED,696e824812786c0f3a8b7680,696ebbfb24c93378939d9785,Y/N,NA,EXPERIMENTAL,wants|dislikes,AB
Y/N,want,EX92,EXPERIMENTAL,Linda-the-Urbanite wants to eat a biscuit or a cranberry,disjunction,wants|dislikes,AB,,NA,a biscuit,a cranberry,wants,dislikes,Urbanite,,,2993,a biscuit or a cranberry,n,html-keyboard-response,372,2.1.0,502573,EXPERIMENTAL,695fcea7a80091f158646750,2531,b86f8bd6-71b8-4e7e-a46b-bdcbcfae58ee,2404,1768864783500,1768865638561,00:14:15,FINISHED,696e824812786c0f3a8b7680,696ebbfb24c93378939d9785,Y/N,NA,EXPERIMENTAL,wants|dislikes,AB
N,prefer,PS80,PREFER_SAME,Charles-the-Urbanite prefers to eat a steak rather than beef,preference,accepts_vs_accepts,AB,eq,N,a steak,beef,accepts,accepts,Urbanite,,,1460,a steak rather than beef,n,html-keyboard-response,377,2.1.0,506571,EXPERIMENTAL,695fcea7a80091f158646750,2531,b86f8bd6-71b8-4e7e-a46b-bdcbcfae58ee,2404,1768864783500,1768865638561,00:14:15,FINISHED,696e824812786c0f3a8b7680,696ebbfb24c93378939d9785,N,N,PREFER_SAME,accepts_vs_accepts,AB
N,prefer,PD58,PREFER_DIFFERENT,Anthony-the-Urbanite prefers to eat a mango rather than pork,preference,dislikes_vs_accepts,BA,lt,N,a mango,pork,dislikes,accepts,Urbanite,,,1928,a mango rather than pork,n,html-keyboard-response,382,2.1.0,511028,EXPERIMENTAL,695fcea7a80091f158646750,2531,b86f8bd6-71b8-4e7e-a46b-bdcbcfae58ee,2404,1768864783500,1768865638561,00:14:15,FINISHED,696e824812786c0f3a8b7680,696ebbfb24c93378939d9785,N,N,PREFER_DIFFERENT,dislikes_vs_accepts,BA
Y/N,want,EX94,EXPERIMENTAL,Matthew-the-Urbanite wants to eat a pear or a cupcake,disjunction,wants|dislikes,BA,,NA,a pear,a cupcake,dislikes,wants,Urbanite,,,977,a pear or a cupcake,n,html-keyboard-response,387,2.1.0,514538,EXPERIMENTAL,695fcea7a80091f158646750,2531,b86f8bd6-71b8-4e7e-a46b-bdcbcfae58ee,2404,1768864783500,1768865638561,00:14:15,FINISHED,696e824812786c0f3a8b7680,696ebbfb24c93378939d9785,Y/N,NA,EXPERIMENTAL,wants|dislikes,BA
N,prefer,PS88,PREFER_SAME,William-the-Nomad prefers to eat a plum rather than a mango,preference,wants_vs_wants,AB,eq,N,a plum,a mango,wants,wants,Nomad,,,1833,a plum rather than a mango,n,html-keyboard-response,392,2.1.0,518912,EXPERIMENTAL,695fcea7a80091f158646750,2531,b86f8bd6-71b8-4e7e-a46b-bdcbcfae58ee,2404,1768864783500,1768865638561,00:14:15,FINISHED,696e824812786c0f3a8b7680,696ebbfb24c93378939d9785,N,N,PREFER_SAME,wants_vs_wants,AB
N,want,SC13,SINGLE_CONTROL,Andrew-the-Nomad wants to eat a meatball,single,accepts,single,,N,a meatball,,accepts,,Nomad,,,806,a meatball,b,html-keyboard-response,397,2.1.0,522247,EXPERIMENTAL,695fcea7a80091f158646750,2531,b86f8bd6-71b8-4e7e-a46b-bdcbcfae58ee,2404,1768864783500,1768865638561,00:14:15,FINISHED,696e824812786c0f3a8b7680,696ebbfb24c93378939d9785,N,N,SINGLE_CONTROL,accepts,single
N,prefer,PS84,PREFER_SAME,Barbara-the-Nomad prefers to eat a sausage rather than a meatball,preference,accepts_vs_accepts,AB,eq,N,a sausage,a meatball,accepts,accepts,Nomad,,,1706,a sausage rather than a meatball,n,html-keyboard-response,402,2.1.0,526484,EXPERIMENTAL,695fcea7a80091f158646750,2531,b86f8bd6-71b8-4e7e-a46b-bdcbcfae58ee,2404,1768864783500,1768865638561,00:14:15,FINISHED,696e824812786c0f3a8b7680,696ebbfb24c93378939d9785,N,N,PREFER_SAME,accepts_vs_accepts,AB
Y,want,DC49,DOUBLE_CONTROL,Margaret-the-Nomad wants to eat a peach or a plum,disjunction,wants|wants,AB,,Y,a peach,a plum,wants,wants,Nomad,,,1196,a peach or a plum,b,html-keyboard-response,407,2.1.0,530208,EXPERIMENTAL,695fcea7a80091f158646750,2531,b86f8bd6-71b8-4e7e-a46b-bdcbcfae58ee,2404,1768864783500,1768865638561,00:14:15,FINISHED,696e824812786c0f3a8b7680,696ebbfb24c93378939d9785,Y,Y,DOUBLE_CONTROL,wants|wants,AB
N,want,SC10,SINGLE_CONTROL,Patricia-the-Nomad wants to eat a chocolate,single,dislikes,single,,N,a chocolate,,dislikes,,Nomad,,,847,a chocolate,n,html-keyboard-response,412,2.1.0,533594,EXPERIMENTAL,695fcea7a80091f158646750,2531,b86f8bd6-71b8-4e7e-a46b-bdcbcfae58ee,2404,1768864783500,1768865638561,00:14:15,FINISHED,696e824812786c0f3a8b7680,696ebbfb24c93378939d9785,N,N,SINGLE_CONTROL,dislikes,single
Y,want,SC16,SINGLE_CONTROL,Ashley-the-Nomad wants to eat an orange,single,wants,single,,Y,an orange,,wants,,Nomad,,,855,an orange,b,html-keyboard-response,417,2.1.0,536985,EXPERIMENTAL,695fcea7a80091f158646750,2531,b86f8bd6-71b8-4e7e-a46b-bdcbcfae58ee,2404,1768864783500,1768865638561,00:14:15,FINISHED,696e824812786c0f3a8b7680,696ebbfb24c93378939d9785,Y,Y,SINGLE_CONTROL,wants,single
Y,want,DC53,DOUBLE_CONTROL,Andrew-the-Nomad wants to eat a cranberry or an apple,disjunction,wants|wants,BA,,Y,a cranberry,an apple,wants,wants,Nomad,,,1483,a cranberry or an apple,b,html-keyboard-response,422,2.1.0,540994,EXPERIMENTAL,695fcea7a80091f158646750,2531,b86f8bd6-71b8-4e7e-a46b-bdcbcfae58ee,2404,1768864783500,1768865638561,00:14:15,FINISHED,696e824812786c0f3a8b7680,696ebbfb24c93378939d9785,Y,Y,DOUBLE_CONTROL,wants|wants,BA
Y/N,want,EX95,EXPERIMENTAL,Sandra-the-Urbanite wants to eat a cherry or a cake,disjunction,wants|dislikes,BA,,NA,a cherry,a cake,dislikes,wants,Urbanite,,,1132,a cherry or a cake,n,html-keyboard-response,427,2.1.0,544651,EXPERIMENTAL,695fcea7a80091f158646750,2531,b86f8bd6-71b8-4e7e-a46b-bdcbcfae58ee,2404,1768864783500,1768865638561,00:14:15,FINISHED,696e824812786c0f3a8b7680,696ebbfb24c93378939d9785,Y/N,NA,EXPERIMENTAL,wants|dislikes,BA
N,prefer,PD70,PREFER_DIFFERENT,Emily-the-Nomad prefers to eat a brownie rather than a steak,preference,dislikes_vs_accepts,BA,lt,N,a brownie,a steak,dislikes,accepts,Nomad,,,2458,a brownie rather than a steak,n,html-keyboard-response,432,2.1.0,549644,EXPERIMENTAL,695fcea7a80091f158646750,2531,b86f8bd6-71b8-4e7e-a46b-bdcbcfae58ee,2404,1768864783500,1768865638561,00:14:15,FINISHED,696e824812786c0f3a8b7680,696ebbfb24c93378939d9785,N,N,PREFER_DIFFERENT,dislikes_vs_accepts,BA
Y,want,DC51,DOUBLE_CONTROL,Sarah-the-Nomad wants to eat a strawberry or a grapefruit,disjunction,wants|wants,BA,,Y,a strawberry,a grapefruit,wants,wants,Nomad,,,1005,a strawberry or a grapefruit,b,html-keyboard-response,437,2.1.0,553189,EXPERIMENTAL,695fcea7a80091f158646750,2531,b86f8bd6-71b8-4e7e-a46b-bdcbcfae58ee,2404,1768864783500,1768865638561,00:14:15,FINISHED,696e824812786c0f3a8b7680,696ebbfb24c93378939d9785,Y,Y,DOUBLE_CONTROL,wants|wants,BA
N,want,DC28,DOUBLE_CONTROL,Robert-the-Urbanite wants to eat ribs or pork,disjunction,accepts|accepts,BA,,N,ribs,pork,accepts,accepts,Urbanite,,,2123,ribs or pork,b,html-keyboard-response,442,2.1.0,557837,EXPERIMENTAL,695fcea7a80091f158646750,2531,b86f8bd6-71b8-4e7e-a46b-bdcbcfae58ee,2404,1768864783500,1768865638561,00:14:15,FINISHED,696e824812786c0f3a8b7680,696ebbfb24c93378939d9785,N,N,DOUBLE_CONTROL,accepts|accepts,BA
Y,prefer,PD73,PREFER_DIFFERENT,Richard-the-Nomad prefers to eat an apple rather than a kebab,preference,wants_vs_accepts,AB,gt,Y,an apple,a kebab,wants,accepts,Nomad,,,2540,an apple rather than a kebab,b,html-keyboard-response,447,2.1.0,562918,EXPERIMENTAL,695fcea7a80091f158646750,2531,b86f8bd6-71b8-4e7e-a46b-bdcbcfae58ee,2404,1768864783500,1768865638561,00:14:15,FINISHED,696e824812786c0f3a8b7680,696ebbfb24c93378939d9785,Y,Y,PREFER_DIFFERENT,wants_vs_accepts,AB
N,want,DC19,DOUBLE_CONTROL,Jennifer-the-Urbanite wants to eat a peach or a plum,disjunction,dislikes|dislikes,AB,,N,a peach,a plum,dislikes,dislikes,Urbanite,,,921,a peach or a plum,n,html-keyboard-response,452,2.1.0,566374,EXPERIMENTAL,695fcea7a80091f158646750,2531,b86f8bd6-71b8-4e7e-a46b-bdcbcfae58ee,2404,1768864783500,1768865638561,00:14:15,FINISHED,696e824812786c0f3a8b7680,696ebbfb24c93378939d9785,N,N,DOUBLE_CONTROL,dislikes|dislikes,AB
N,prefer,PS82,PREFER_SAME,Christopher-the-Urbanite prefers to eat a biscuit rather than a cookie,preference,wants_vs_wants,AB,eq,N,a biscuit,a cookie,wants,wants,Urbanite,,,2939,a biscuit rather than a cookie,n,html-keyboard-response,457,2.1.0,571850,EXPERIMENTAL,695fcea7a80091f158646750,2531,b86f8bd6-71b8-4e7e-a46b-bdcbcfae58ee,2404,1768864783500,1768865638561,00:14:15,FINISHED,696e824812786c0f3a8b7680,696ebbfb24c93378939d9785,N,N,PREFER_SAME,wants_vs_wants,AB
N,want,SC4,SINGLE_CONTROL,Barbara-the-Urbanite wants to eat a sausage,single,accepts,single,,N,a sausage,,accepts,,Urbanite,,,864,a sausage,b,html-keyboard-response,462,2.1.0,575243,EXPERIMENTAL,695fcea7a80091f158646750,2531,b86f8bd6-71b8-4e7e-a46b-bdcbcfae58ee,2404,1768864783500,1768865638561,00:14:15,FINISHED,696e824812786c0f3a8b7680,696ebbfb24c93378939d9785,N,N,SINGLE_CONTROL,accepts,single
N,want,SC2,SINGLE_CONTROL,Christopher-the-Urbanite wants to eat a cranberry,single,dislikes,single,,N,a cranberry,,dislikes,,Urbanite,,,1419,a cranberry,n,html-keyboard-response,467,2.1.0,579202,EXPERIMENTAL,695fcea7a80091f158646750,2531,b86f8bd6-71b8-4e7e-a46b-bdcbcfae58ee,2404,1768864783500,1768865638561,00:14:15,FINISHED,696e824812786c0f3a8b7680,696ebbfb24c93378939d9785,N,N,SINGLE_CONTROL,dislikes,single
Y,want,DC32,DOUBLE_CONTROL,David-the-Urbanite wants to eat a biscuit or a cookie,disjunction,wants|wants,AB,,Y,a biscuit,a cookie,wants,wants,Urbanite,,,4228,a biscuit or a cookie,b,html-keyboard-response,472,2.1.0,585954,EXPERIMENTAL,695fcea7a80091f158646750,2531,b86f8bd6-71b8-4e7e-a46b-bdcbcfae58ee,2404,1768864783500,1768865638561,00:14:15,FINISHED,696e824812786c0f3a8b7680,696ebbfb24c93378939d9785,Y,Y,DOUBLE_CONTROL,wants|wants,AB
N,prefer,PD59,PREFER_DIFFERENT,Jennifer-the-Urbanite prefers to eat a plum rather than beef,preference,dislikes_vs_accepts,BA,lt,N,a plum,beef,dislikes,accepts,Urbanite,,,2378,a plum rather than beef,n,html-keyboard-response,477,2.1.0,590885,EXPERIMENTAL,695fcea7a80091f158646750,2531,b86f8bd6-71b8-4e7e-a46b-bdcbcfae58ee,2404,1768864783500,1768865638561,00:14:15,FINISHED,696e824812786c0f3a8b7680,696ebbfb24c93378939d9785,N,N,PREFER_DIFFERENT,dislikes_vs_accepts,BA
Y/N,want,EX112,EXPERIMENTAL,David-the-Nomad wants to eat a kebab or a cranberry,disjunction,wants|accepts,BA,,NA,a kebab,a cranberry,accepts,wants,Nomad,,,4149,a kebab or a cranberry,b,html-keyboard-response,483,2.1.0,605326,EXPERIMENTAL,695fcea7a80091f158646750,2531,b86f8bd6-71b8-4e7e-a46b-bdcbcfae58ee,2404,1768864783500,1768865638561,00:14:15,FINISHED,696e824812786c0f3a8b7680,696ebbfb24c93378939d9785,Y/N,NA,EXPERIMENTAL,wants|accepts,BA
N,want,DC27,DOUBLE_CONTROL,Betty-the-Urbanite wants to eat a hotdog or ribs,disjunction,accepts|accepts,BA,,N,a hotdog,ribs,accepts,accepts,Urbanite,,,1990,a hotdog or ribs,b,html-keyboard-response,488,2.1.0,609865,EXPERIMENTAL,695fcea7a80091f158646750,2531,b86f8bd6-71b8-4e7e-a46b-bdcbcfae58ee,2404,1768864783500,1768865638561,00:14:15,FINISHED,696e824812786c0f3a8b7680,696ebbfb24c93378939d9785,N,N,DOUBLE_CONTROL,accepts|accepts,BA
Y/N,want,EX113,EXPERIMENTAL,Richard-the-Nomad wants to eat a meatball or an apple,disjunction,wants|accepts,BA,,NA,a meatball,an apple,accepts,wants,Nomad,,,1509,a meatball or an apple,b,html-keyboard-response,493,2.1.0,613907,EXPERIMENTAL,695fcea7a80091f158646750,2531,b86f8bd6-71b8-4e7e-a46b-bdcbcfae58ee,2404,1768864783500,1768865638561,00:14:15,FINISHED,696e824812786c0f3a8b7680,696ebbfb24c93378939d9785,Y/N,NA,EXPERIMENTAL,wants|accepts,BA
N,want,SC12,SINGLE_CONTROL,Linda-the-Nomad wants to eat a kebab,single,accepts,single,,N,a kebab,,accepts,,Nomad,,,3900,a kebab,b,html-keyboard-response,498,2.1.0,620341,EXPERIMENTAL,695fcea7a80091f158646750,2531,b86f8bd6-71b8-4e7e-a46b-bdcbcfae58ee,2404,1768864783500,1768865638561,00:14:15,FINISHED,696e824812786c0f3a8b7680,696ebbfb24c93378939d9785,N,N,SINGLE_CONTROL,accepts,single
Y,prefer,PD56,PREFER_DIFFERENT,Ashley-the-Urbanite prefers to eat a hotdog rather than a cherry,preference,accepts_vs_dislikes,AB,gt,Y,a hotdog,a cherry,accepts,dislikes,Urbanite,,,3137,a hotdog rather than a cherry,b,html-keyboard-response,503,2.1.0,626033,EXPERIMENTAL,695fcea7a80091f158646750,2531,b86f8bd6-71b8-4e7e-a46b-bdcbcfae58ee,2404,1768864783500,1768865638561,00:14:15,FINISHED,696e824812786c0f3a8b7680,696ebbfb24c93378939d9785,Y,Y,PREFER_DIFFERENT,accepts_vs_dislikes,AB
Y,want,SC8,SINGLE_CONTROL,William-the-Urbanite wants to eat a donut,single,wants,single,,Y,a donut,,wants,,Urbanite,,,1401,a donut,b,html-keyboard-response,508,2.1.0,629960,EXPERIMENTAL,695fcea7a80091f158646750,2531,b86f8bd6-71b8-4e7e-a46b-bdcbcfae58ee,2404,1768864783500,1768865638561,00:14:15,FINISHED,696e824812786c0f3a8b7680,696ebbfb24c93378939d9785,Y,Y,SINGLE_CONTROL,wants,single
N,want,DC47,DOUBLE_CONTROL,Daniel-the-Nomad wants to eat a hotdog or ribs,disjunction,accepts|accepts,BA,,N,a hotdog,ribs,accepts,accepts,Nomad,,,1345,a hotdog or ribs,b,html-keyboard-response,513,2.1.0,633839,EXPERIMENTAL,695fcea7a80091f158646750,2531,b86f8bd6-71b8-4e7e-a46b-bdcbcfae58ee,2404,1768864783500,1768865638561,00:14:15,FINISHED,696e824812786c0f3a8b7680,696ebbfb24c93378939d9785,N,N,DOUBLE_CONTROL,accepts|accepts,BA
N,want,SC5,SINGLE_CONTROL,Elizabeth-the-Urbanite wants to eat a meatloaf,single,accepts,single,,N,a meatloaf,,accepts,,Urbanite,,,2094,a meatloaf,b,html-keyboard-response,518,2.1.0,638453,EXPERIMENTAL,695fcea7a80091f158646750,2531,b86f8bd6-71b8-4e7e-a46b-bdcbcfae58ee,2404,1768864783500,1768865638561,00:14:15,FINISHED,696e824812786c0f3a8b7680,696ebbfb24c93378939d9785,N,N,SINGLE_CONTROL,accepts,single
Y,want,SC7,SINGLE_CONTROL,Daniel-the-Urbanite wants to eat caramel,single,wants,single,,Y,caramel,,wants,,Urbanite,,,1476,caramel,b,html-keyboard-response,523,2.1.0,642451,EXPERIMENTAL,695fcea7a80091f158646750,2531,b86f8bd6-71b8-4e7e-a46b-bdcbcfae58ee,2404,1768864783500,1768865638561,00:14:15,FINISHED,696e824812786c0f3a8b7680,696ebbfb24c93378939d9785,Y,Y,SINGLE_CONTROL,wants,single
Y/N,want,EX105,EXPERIMENTAL,Steven-the-Nomad wants to eat a cake or a cherry,disjunction,wants|dislikes,BA,,NA,a cake,a cherry,dislikes,wants,Nomad,,,1211,a cake or a cherry,n,html-keyboard-response,528,2.1.0,646186,EXPERIMENTAL,695fcea7a80091f158646750,2531,b86f8bd6-71b8-4e7e-a46b-bdcbcfae58ee,2404,1768864783500,1768865638561,00:14:15,FINISHED,696e824812786c0f3a8b7680,696ebbfb24c93378939d9785,Y/N,NA,EXPERIMENTAL,wants|dislikes,BA
Y,want,DC35,DOUBLE_CONTROL,Mark-the-Urbanite wants to eat a cupcake or a cake,disjunction,wants|wants,BA,,Y,a cupcake,a cake,wants,wants,Urbanite,,,1579,a cupcake or a cake,b,html-keyboard-response,533,2.1.0,650294,EXPERIMENTAL,695fcea7a80091f158646750,2531,b86f8bd6-71b8-4e7e-a46b-bdcbcfae58ee,2404,1768864783500,1768865638561,00:14:15,FINISHED,696e824812786c0f3a8b7680,696ebbfb24c93378939d9785,Y,Y,DOUBLE_CONTROL,wants|wants,BA
Y,want,DC48,DOUBLE_CONTROL,William-the-Nomad wants to eat a plum or a mango,disjunction,wants|wants,AB,,Y,a plum,a mango,wants,wants,Nomad,,,2134,a plum or a mango,n,html-keyboard-response,538,2.1.0,654948,EXPERIMENTAL,695fcea7a80091f158646750,2531,b86f8bd6-71b8-4e7e-a46b-bdcbcfae58ee,2404,1768864783500,1768865638561,00:14:15,FINISHED,696e824812786c0f3a8b7680,696ebbfb24c93378939d9785,Y,Y,DOUBLE_CONTROL,wants|wants,AB
N,want,DC36,DOUBLE_CONTROL,Donald-the-Nomad wants to eat a muffin or a cake,disjunction,dislikes|dislikes,AB,,N,a muffin,a cake,dislikes,dislikes,Nomad,,,1059,a muffin or a cake,n,html-keyboard-response,543,2.1.0,658534,EXPERIMENTAL,695fcea7a80091f158646750,2531,b86f8bd6-71b8-4e7e-a46b-bdcbcfae58ee,2404,1768864783500,1768865638561,00:14:15,FINISHED,696e824812786c0f3a8b7680,696ebbfb24c93378939d9785,N,N,DOUBLE_CONTROL,dislikes|dislikes,AB
N,prefer,PS83,PREFER_SAME,Dorothy-the-Urbanite prefers to eat a lollipop rather than a biscuit,preference,wants_vs_wants,AB,eq,N,a lollipop,a biscuit,wants,wants,Urbanite,,,9328,a lollipop rather than a biscuit,n,html-keyboard-response,548,2.1.0,670392,EXPERIMENTAL,695fcea7a80091f158646750,2531,b86f8bd6-71b8-4e7e-a46b-bdcbcfae58ee,2404,1768864783500,1768865638561,00:14:15,FINISHED,696e824812786c0f3a8b7680,696ebbfb24c93378939d9785,N,N,PREFER_SAME,wants_vs_wants,AB
Y,prefer,PD62,PREFER_DIFFERENT,Kimberly-the-Urbanite prefers to eat a biscuit rather than a burger,preference,wants_vs_accepts,AB,gt,Y,a biscuit,a burger,wants,accepts,Urbanite,,,2837,a biscuit rather than a burger,b,html-keyboard-response,553,2.1.0,675750,EXPERIMENTAL,695fcea7a80091f158646750,2531,b86f8bd6-71b8-4e7e-a46b-bdcbcfae58ee,2404,1768864783500,1768865638561,00:14:15,FINISHED,696e824812786c0f3a8b7680,696ebbfb24c93378939d9785,Y,Y,PREFER_DIFFERENT,wants_vs_accepts,AB
N,prefer,PS81,PREFER_SAME,Michael-the-Urbanite prefers to eat a cookie rather than a chocolate,preference,wants_vs_wants,AB,eq,N,a cookie,a chocolate,wants,wants,Urbanite,,,1736,a cookie rather than a chocolate,n,html-keyboard-response,558,2.1.0,680010,EXPERIMENTAL,695fcea7a80091f158646750,2531,b86f8bd6-71b8-4e7e-a46b-bdcbcfae58ee,2404,1768864783500,1768865638561,00:14:15,FINISHED,696e824812786c0f3a8b7680,696ebbfb24c93378939d9785,N,N,PREFER_SAME,wants_vs_wants,AB
Y/N,want,EX104,EXPERIMENTAL,Joshua-the-Nomad wants to eat a pear or a cupcake,disjunction,wants|dislikes,AB,,NA,a pear,a cupcake,wants,dislikes,Nomad,,,1463,a pear or a cupcake,n,html-keyboard-response,563,2.1.0,684010,EXPERIMENTAL,695fcea7a80091f158646750,2531,b86f8bd6-71b8-4e7e-a46b-bdcbcfae58ee,2404,1768864783500,1768865638561,00:14:15,FINISHED,696e824812786c0f3a8b7680,696ebbfb24c93378939d9785,Y/N,NA,EXPERIMENTAL,wants|dislikes,AB
Y/N,want,EX102,EXPERIMENTAL,Kimberly-the-Nomad wants to eat a cranberry or a biscuit,disjunction,wants|dislikes,AB,,NA,a cranberry,a biscuit,wants,dislikes,Nomad,,,4398,a cranberry or a biscuit,n,html-keyboard-response,568,2.1.0,690938,EXPERIMENTAL,695fcea7a80091f158646750,2531,b86f8bd6-71b8-4e7e-a46b-bdcbcfae58ee,2404,1768864783500,1768865638561,00:14:15,FINISHED,696e824812786c0f3a8b7680,696ebbfb24c93378939d9785,Y/N,NA,EXPERIMENTAL,wants|dislikes,AB
Y,want,DC30,DOUBLE_CONTROL,Emily-the-Urbanite wants to eat a chocolate or a brownie,disjunction,wants|wants,AB,,Y,a chocolate,a brownie,wants,wants,Urbanite,,,1869,a chocolate or a brownie,b,html-keyboard-response,573,2.1.0,695341,EXPERIMENTAL,695fcea7a80091f158646750,2531,b86f8bd6-71b8-4e7e-a46b-bdcbcfae58ee,2404,1768864783500,1768865638561,00:14:15,FINISHED,696e824812786c0f3a8b7680,696ebbfb24c93378939d9785,Y,Y,DOUBLE_CONTROL,wants|wants,AB
N,prefer,PD77,PREFER_DIFFERENT,Paul-the-Nomad prefers to eat a hotdog rather than a mango,preference,accepts_vs_wants,BA,lt,N,a hotdog,a mango,accepts,wants,Nomad,,,1945,a hotdog rather than a mango,n,html-keyboard-response,578,2.1.0,699817,EXPERIMENTAL,695fcea7a80091f158646750,2531,b86f8bd6-71b8-4e7e-a46b-bdcbcfae58ee,2404,1768864783500,1768865638561,00:14:15,FINISHED,696e824812786c0f3a8b7680,696ebbfb24c93378939d9785,N,N,PREFER_DIFFERENT,accepts_vs_wants,BA
N,prefer,PS89,PREFER_SAME,Margaret-the-Nomad prefers to eat a peach rather than a plum,preference,wants_vs_wants,AB,eq,N,a peach,a plum,wants,wants,Nomad,,,1590,a peach rather than a plum,n,html-keyboard-response,583,2.1.0,703929,EXPERIMENTAL,695fcea7a80091f158646750,2531,b86f8bd6-71b8-4e7e-a46b-bdcbcfae58ee,2404,1768864783500,1768865638561,00:14:15,FINISHED,696e824812786c0f3a8b7680,696ebbfb24c93378939d9785,N,N,PREFER_SAME,wants_vs_wants,AB
Y/N,want,EX109,EXPERIMENTAL,James-the-Nomad wants to eat a peach or beef,disjunction,wants|accepts,AB,,NA,a peach,beef,wants,accepts,Nomad,,,1902,a peach or beef,b,html-keyboard-response,588,2.1.0,708359,EXPERIMENTAL,695fcea7a80091f158646750,2531,b86f8bd6-71b8-4e7e-a46b-bdcbcfae58ee,2404,1768864783500,1768865638561,00:14:15,FINISHED,696e824812786c0f3a8b7680,696ebbfb24c93378939d9785,Y/N,NA,EXPERIMENTAL,wants|accepts,AB
N,want,DC26,DOUBLE_CONTROL,Donna-the-Urbanite wants to eat a hotdog or a meatloaf,disjunction,accepts|accepts,AB,,N,a hotdog,a meatloaf,accepts,accepts,Urbanite,,,1050,a hotdog or a meatloaf,b,html-keyboard-response,593,2.1.0,711946,EXPERIMENTAL,695fcea7a80091f158646750,2531,b86f8bd6-71b8-4e7e-a46b-bdcbcfae58ee,2404,1768864783500,1768865638561,00:14:15,FINISHED,696e824812786c0f3a8b7680,696ebbfb24c93378939d9785,N,N,DOUBLE_CONTROL,accepts|accepts,AB
N,want,DC45,DOUBLE_CONTROL,Elizabeth-the-Nomad wants to eat a sausage or a meatloaf,disjunction,accepts|accepts,BA,,N,a sausage,a meatloaf,accepts,accepts,Nomad,,,2385,a sausage or a meatloaf,b,html-keyboard-response,598,2.1.0,716861,EXPERIMENTAL,695fcea7a80091f158646750,2531,b86f8bd6-71b8-4e7e-a46b-bdcbcfae58ee,2404,1768864783500,1768865638561,00:14:15,FINISHED,696e824812786c0f3a8b7680,696ebbfb24c93378939d9785,N,N,DOUBLE_CONTROL,accepts|accepts,BA
N,prefer,PD63,PREFER_DIFFERENT,Karen-the-Urbanite prefers to eat a kebab rather than a lollipop,preference,accepts_vs_wants,BA,lt,N,a kebab,a lollipop,accepts,wants,Urbanite,,,1837,a kebab rather than a lollipop,n,html-keyboard-response,603,2.1.0,721244,EXPERIMENTAL,695fcea7a80091f158646750,2531,b86f8bd6-71b8-4e7e-a46b-bdcbcfae58ee,2404,1768864783500,1768865638561,00:14:15,FINISHED,696e824812786c0f3a8b7680,696ebbfb24c93378939d9785,N,N,PREFER_DIFFERENT,accepts_vs_wants,BA
N,prefer,PD76,PREFER_DIFFERENT,Donald-the-Nomad prefers to eat a meatloaf rather than an orange,preference,accepts_vs_wants,BA,lt,N,a meatloaf,an orange,accepts,wants,Nomad,,,1124,a meatloaf rather than an orange,n,html-keyboard-response,608,2.1.0,724901,EXPERIMENTAL,695fcea7a80091f158646750,2531,b86f8bd6-71b8-4e7e-a46b-bdcbcfae58ee,2404,1768864783500,1768865638561,00:14:15,FINISHED,696e824812786c0f3a8b7680,696ebbfb24c93378939d9785,N,N,PREFER_DIFFERENT,accepts_vs_wants,BA
N,want,DC23,DOUBLE_CONTROL,Karen-the-Urbanite wants to eat a cranberry or an apple,disjunction,dislikes|dislikes,BA,,N,a cranberry,an apple,dislikes,dislikes,Urbanite,,,1066,a cranberry or an apple,n,html-keyboard-response,613,2.1.0,728493,EXPERIMENTAL,695fcea7a80091f158646750,2531,b86f8bd6-71b8-4e7e-a46b-bdcbcfae58ee,2404,1768864783500,1768865638561,00:14:15,FINISHED,696e824812786c0f3a8b7680,696ebbfb24c93378939d9785,N,N,DOUBLE_CONTROL,dislikes|dislikes,BA
N,want,DC46,DOUBLE_CONTROL,Nancy-the-Nomad wants to eat a meatloaf or a hotdog,disjunction,accepts|accepts,BA,,N,a meatloaf,a hotdog,accepts,accepts,Nomad,,,1239,a meatloaf or a hotdog,b,html-keyboard-response,618,2.1.0,732267,EXPERIMENTAL,695fcea7a80091f158646750,2531,b86f8bd6-71b8-4e7e-a46b-bdcbcfae58ee,2404,1768864783500,1768865638561,00:14:15,FINISHED,696e824812786c0f3a8b7680,696ebbfb24c93378939d9785,N,N,DOUBLE_CONTROL,accepts|accepts,BA
Y,want,SC15,SINGLE_CONTROL,Sandra-the-Nomad wants to eat a cherry,single,wants,single,,Y,a cherry,,wants,,Nomad,,,1458,a cherry,b,html-keyboard-response,623,2.1.0,736246,EXPERIMENTAL,695fcea7a80091f158646750,2531,b86f8bd6-71b8-4e7e-a46b-bdcbcfae58ee,2404,1768864783500,1768865638561,00:14:15,FINISHED,696e824812786c0f3a8b7680,696ebbfb24c93378939d9785,Y,Y,SINGLE_CONTROL,wants,single
N,prefer,PS86,PREFER_SAME,Nancy-the-Nomad prefers to eat a hotdog rather than a meatloaf,preference,accepts_vs_accepts,AB,eq,N,a hotdog,a meatloaf,accepts,accepts,Nomad,,,1866,a hotdog rather than a meatloaf,n,html-keyboard-response,628,2.1.0,740645,EXPERIMENTAL,695fcea7a80091f158646750,2531,b86f8bd6-71b8-4e7e-a46b-bdcbcfae58ee,2404,1768864783500,1768865638561,00:14:15,FINISHED,696e824812786c0f3a8b7680,696ebbfb24c93378939d9785,N,N,PREFER_SAME,accepts_vs_accepts,AB
Y,prefer,PD55,PREFER_DIFFERENT,Sandra-the-Urbanite prefers to eat a meatloaf rather than a pear,preference,accepts_vs_dislikes,AB,gt,Y,a meatloaf,a pear,accepts,dislikes,Urbanite,,,1590,a meatloaf rather than a pear,b,html-keyboard-response,633,2.1.0,744762,EXPERIMENTAL,695fcea7a80091f158646750,2531,b86f8bd6-71b8-4e7e-a46b-bdcbcfae58ee,2404,1768864783500,1768865638561,00:14:15,FINISHED,696e824812786c0f3a8b7680,696ebbfb24c93378939d9785,Y,Y,PREFER_DIFFERENT,accepts_vs_dislikes,AB
Y/N,want,EX110,EXPERIMENTAL,Emily-the-Nomad wants to eat a strawberry or a steak,disjunction,wants|accepts,AB,,NA,a strawberry,a steak,wants,accepts,Nomad,,,1506,a strawberry or a steak,b,html-keyboard-response,638,2.1.0,748800,EXPERIMENTAL,695fcea7a80091f158646750,2531,b86f8bd6-71b8-4e7e-a46b-bdcbcfae58ee,2404,1768864783500,1768865638561,00:14:15,FINISHED,696e824812786c0f3a8b7680,696ebbfb24c93378939d9785,Y/N,NA,EXPERIMENTAL,wants|accepts,AB
Y,want,SC6,SINGLE_CONTROL,Nancy-the-Urbanite wants to eat a muffin,single,wants,single,,Y,a muffin,,wants,,Urbanite,,,1411,a muffin,b,html-keyboard-response,643,2.1.0,752751,EXPERIMENTAL,695fcea7a80091f158646750,2531,b86f8bd6-71b8-4e7e-a46b-bdcbcfae58ee,2404,1768864783500,1768865638561,00:14:15,FINISHED,696e824812786c0f3a8b7680,696ebbfb24c93378939d9785,Y,Y,SINGLE_CONTROL,wants,single
N,prefer,PS87,PREFER_SAME,Daniel-the-Nomad prefers to eat a mango rather than an orange,preference,wants_vs_wants,AB,eq,N,a mango,an orange,wants,wants,Nomad,,,1451,a mango rather than an orange,n,html-keyboard-response,648,2.1.0,756723,EXPERIMENTAL,695fcea7a80091f158646750,2531,b86f8bd6-71b8-4e7e-a46b-bdcbcfae58ee,2404,1768864783500,1768865638561,00:14:15,FINISHED,696e824812786c0f3a8b7680,696ebbfb24c93378939d9785,N,N,PREFER_SAME,wants_vs_wants,AB
N,want,DC20,DOUBLE_CONTROL,Mary-the-Urbanite wants to eat a strawberry or a peach,disjunction,dislikes|dislikes,AB,,N,a strawberry,a peach,dislikes,dislikes,Urbanite,,,1226,a strawberry or a peach,n,html-keyboard-response,653,2.1.0,760499,EXPERIMENTAL,695fcea7a80091f158646750,2531,b86f8bd6-71b8-4e7e-a46b-bdcbcfae58ee,2404,1768864783500,1768865638561,00:14:15,FINISHED,696e824812786c0f3a8b7680,696ebbfb24c93378939d9785,N,N,DOUBLE_CONTROL,dislikes|dislikes,AB
N,prefer,PD64,PREFER_DIFFERENT,Joshua-the-Urbanite prefers to eat a meatball rather than a cupcake,preference,accepts_vs_wants,BA,lt,N,a meatball,a cupcake,accepts,wants,Urbanite,,,1918,a meatball rather than a cupcake,n,html-keyboard-response,658,2.1.0,764934,EXPERIMENTAL,695fcea7a80091f158646750,2531,b86f8bd6-71b8-4e7e-a46b-bdcbcfae58ee,2404,1768864783500,1768865638561,00:14:15,FINISHED,696e824812786c0f3a8b7680,696ebbfb24c93378939d9785,N,N,PREFER_DIFFERENT,accepts_vs_wants,BA
Y,want,DC31,DOUBLE_CONTROL,Jessica-the-Urbanite wants to eat a cookie or a chocolate,disjunction,wants|wants,AB,,Y,a cookie,a chocolate,wants,wants,Urbanite,,,766,a cookie or a chocolate,b,html-keyboard-response,663,2.1.0,768242,EXPERIMENTAL,695fcea7a80091f158646750,2531,b86f8bd6-71b8-4e7e-a46b-bdcbcfae58ee,2404,1768864783500,1768865638561,00:14:15,FINISHED,696e824812786c0f3a8b7680,696ebbfb24c93378939d9785,Y,Y,DOUBLE_CONTROL,wants|wants,AB
N,want,DC18,DOUBLE_CONTROL,Anthony-the-Urbanite wants to eat a plum or a mango,disjunction,dislikes|dislikes,AB,,N,a plum,a mango,dislikes,dislikes,Urbanite,,,2052,a plum or a mango,n,html-keyboard-response,668,2.1.0,772827,EXPERIMENTAL,695fcea7a80091f158646750,2531,b86f8bd6-71b8-4e7e-a46b-bdcbcfae58ee,2404,1768864783500,1768865638561,00:14:15,FINISHED,696e824812786c0f3a8b7680,696ebbfb24c93378939d9785,N,N,DOUBLE_CONTROL,dislikes|dislikes,AB
Y/N,want,EX100,EXPERIMENTAL,Mary-the-Urbanite wants to eat a steak or a chocolate,disjunction,wants|accepts,BA,,NA,a steak,a chocolate,accepts,wants,Urbanite,,,2132,a steak or a chocolate,b,html-keyboard-response,673,2.1.0,777492,EXPERIMENTAL,695fcea7a80091f158646750,2531,b86f8bd6-71b8-4e7e-a46b-bdcbcfae58ee,2404,1768864783500,1768865638561,00:14:15,FINISHED,696e824812786c0f3a8b7680,696ebbfb24c93378939d9785,Y/N,NA,EXPERIMENTAL,wants|accepts,BA
N,want,SC3,SINGLE_CONTROL,Dorothy-the-Urbanite wants to eat a meatball,single,accepts,single,,N,a meatball,,accepts,,Urbanite,,,873,a meatball,b,html-keyboard-response,678,2.1.0,780912,EXPERIMENTAL,695fcea7a80091f158646750,2531,b86f8bd6-71b8-4e7e-a46b-bdcbcfae58ee,2404,1768864783500,1768865638561,00:14:15,FINISHED,696e824812786c0f3a8b7680,696ebbfb24c93378939d9785,N,N,SINGLE_CONTROL,accepts,single
N,want,DC22,DOUBLE_CONTROL,Kimberly-the-Urbanite wants to eat a grapefruit or a cranberry,disjunction,dislikes|dislikes,BA,,N,a grapefruit,a cranberry,dislikes,dislikes,Urbanite,,,737,a grapefruit or a cranberry,n,html-keyboard-response,683,2.1.0,784173,EXPERIMENTAL,695fcea7a80091f158646750,2531,b86f8bd6-71b8-4e7e-a46b-bdcbcfae58ee,2404,1768864783500,1768865638561,00:14:15,FINISHED,696e824812786c0f3a8b7680,696ebbfb24c93378939d9785,N,N,DOUBLE_CONTROL,dislikes|dislikes,BA
N,want,SC14,SINGLE_CONTROL,Matthew-the-Nomad wants to eat a sausage,single,accepts,single,,N,a sausage,,accepts,,Nomad,,,957,a sausage,b,html-keyboard-response,688,2.1.0,787676,EXPERIMENTAL,695fcea7a80091f158646750,2531,b86f8bd6-71b8-4e7e-a46b-bdcbcfae58ee,2404,1768864783500,1768865638561,00:14:15,FINISHED,696e824812786c0f3a8b7680,696ebbfb24c93378939d9785,N,N,SINGLE_CONTROL,accepts,single
N,want,DC44,DOUBLE_CONTROL,Barbara-the-Nomad wants to eat a sausage or a meatball,disjunction,accepts|accepts,AB,,N,a sausage,a meatball,accepts,accepts,Nomad,,,1134,a sausage or a meatball,b,html-keyboard-response,693,2.1.0,791344,EXPERIMENTAL,695fcea7a80091f158646750,2531,b86f8bd6-71b8-4e7e-a46b-bdcbcfae58ee,2404,1768864783500,1768865638561,00:14:15,FINISHED,696e824812786c0f3a8b7680,696ebbfb24c93378939d9785,N,N,DOUBLE_CONTROL,accepts|accepts,AB
N,prefer,PD71,PREFER_DIFFERENT,Jessica-the-Nomad prefers to eat a chocolate rather than a burger,preference,dislikes_vs_accepts,BA,lt,N,a chocolate,a burger,dislikes,accepts,Nomad,,,1946,a chocolate rather than a burger,n,html-keyboard-response,698,2.1.0,795839,EXPERIMENTAL,695fcea7a80091f158646750,2531,b86f8bd6-71b8-4e7e-a46b-bdcbcfae58ee,2404,1768864783500,1768865638561,00:14:15,FINISHED,696e824812786c0f3a8b7680,696ebbfb24c93378939d9785,N,N,PREFER_DIFFERENT,dislikes_vs_accepts,BA
N,prefer,PS78,PREFER_SAME,John-the-Urbanite prefers to eat pork rather than ribs,preference,accepts_vs_accepts,AB,eq,N,pork,ribs,accepts,accepts,Urbanite,,,1135,pork rather than ribs,n,html-keyboard-response,703,2.1.0,799506,EXPERIMENTAL,695fcea7a80091f158646750,2531,b86f8bd6-71b8-4e7e-a46b-bdcbcfae58ee,2404,1768864783500,1768865638561,00:14:15,FINISHED,696e824812786c0f3a8b7680,696ebbfb24c93378939d9785,N,N,PREFER_SAME,accepts_vs_accepts,AB
Y,prefer,PD54,PREFER_DIFFERENT,Matthew-the-Urbanite prefers to eat a sausage rather than an apple,preference,accepts_vs_dislikes,AB,gt,Y,a sausage,an apple,accepts,dislikes,Urbanite,,,2697,a sausage rather than an apple,b,html-keyboard-response,708,2.1.0,804734,EXPERIMENTAL,695fcea7a80091f158646750,2531,b86f8bd6-71b8-4e7e-a46b-bdcbcfae58ee,2404,1768864783500,1768865638561,00:14:15,FINISHED,696e824812786c0f3a8b7680,696ebbfb24c93378939d9785,Y,Y,PREFER_DIFFERENT,accepts_vs_dislikes,AB
N,want,SC11,SINGLE_CONTROL,Sarah-the-Nomad wants to eat a cookie,single,dislikes,single,,N,a cookie,,dislikes,,Nomad,,,1082,a cookie,n,html-keyboard-response,713,2.1.0,808358,EXPERIMENTAL,695fcea7a80091f158646750,2531,b86f8bd6-71b8-4e7e-a46b-bdcbcfae58ee,2404,1768864783500,1768865638561,00:14:15,FINISHED,696e824812786c0f3a8b7680,696ebbfb24c93378939d9785,N,N,SINGLE_CONTROL,dislikes,single
Y,prefer,PD66,PREFER_DIFFERENT,Donna-the-Nomad prefers to eat a hotdog rather than a cake,preference,accepts_vs_dislikes,AB,gt,Y,a hotdog,a cake,accepts,dislikes,Nomad,,,2257,a hotdog rather than a cake,b,html-keyboard-response,718,2.1.0,813143,EXPERIMENTAL,695fcea7a80091f158646750,2531,b86f8bd6-71b8-4e7e-a46b-bdcbcfae58ee,2404,1768864783500,1768865638561,00:14:15,FINISHED,696e824812786c0f3a8b7680,696ebbfb24c93378939d9785,Y,Y,PREFER_DIFFERENT,accepts_vs_dislikes,AB
Y/N,want,EX111,EXPERIMENTAL,Jessica-the-Nomad wants to eat a burger or a grapefruit,disjunction,wants|accepts,BA,,NA,a burger,a grapefruit,accepts,wants,Nomad,,,1871,a burger or a grapefruit,b,html-keyboard-response,723,2.1.0,817543,EXPERIMENTAL,695fcea7a80091f158646750,2531,b86f8bd6-71b8-4e7e-a46b-bdcbcfae58ee,2404,1768864783500,1768865638561,00:14:15,FINISHED,696e824812786c0f3a8b7680,696ebbfb24c93378939d9785,Y/N,NA,EXPERIMENTAL,wants|accepts,BA
Y,prefer,PD67,PREFER_DIFFERENT,Betty-the-Nomad prefers to eat ribs rather than a muffin,preference,accepts_vs_dislikes,AB,gt,Y,ribs,a muffin,accepts,dislikes,Nomad,,,1566,ribs rather than a muffin,b,html-keyboard-response,728,2.1.0,821642,EXPERIMENTAL,695fcea7a80091f158646750,2531,b86f8bd6-71b8-4e7e-a46b-bdcbcfae58ee,2404,1768864783500,1768865638561,00:14:15,FINISHED,696e824812786c0f3a8b7680,696ebbfb24c93378939d9785,Y,Y,PREFER_DIFFERENT,accepts_vs_dislikes,AB
Y/N,want,EX99,EXPERIMENTAL,Jennifer-the-Urbanite wants to eat beef or a brownie,disjunction,wants|accepts,BA,,NA,beef,a brownie,accepts,wants,Urbanite,,,2221,beef or a brownie,b,html-keyboard-response,733,2.1.0,826405,EXPERIMENTAL,695fcea7a80091f158646750,2531,b86f8bd6-71b8-4e7e-a46b-bdcbcfae58ee,2404,1768864783500,1768865638561,00:14:15,FINISHED,696e824812786c0f3a8b7680,696ebbfb24c93378939d9785,Y/N,NA,EXPERIMENTAL,wants|accepts,BA
N,want,DC38,DOUBLE_CONTROL,John-the-Nomad wants to eat a donut or caramel,disjunction,dislikes|dislikes,AB,,N,a donut,caramel,dislikes,dislikes,Nomad,,,1222,a donut or caramel,n,html-keyboard-response,738,2.1.0,830156,EXPERIMENTAL,695fcea7a80091f158646750,2531,b86f8bd6-71b8-4e7e-a46b-bdcbcfae58ee,2404,1768864783500,1768865638561,00:14:15,FINISHED,696e824812786c0f3a8b7680,696ebbfb24c93378939d9785,N,N,DOUBLE_CONTROL,dislikes|dislikes,AB
Y,want,DC52,DOUBLE_CONTROL,Linda-the-Nomad wants to eat a grapefruit or a cranberry,disjunction,wants|wants,BA,,Y,a grapefruit,a cranberry,wants,wants,Nomad,,,1847,a grapefruit or a cranberry,b,html-keyboard-response,743,2.1.0,834532,EXPERIMENTAL,695fcea7a80091f158646750,2531,b86f8bd6-71b8-4e7e-a46b-bdcbcfae58ee,2404,1768864783500,1768865638561,00:14:15,FINISHED,696e824812786c0f3a8b7680,696ebbfb24c93378939d9785,Y,Y,DOUBLE_CONTROL,wants|wants,BA
N,want,DC37,DOUBLE_CONTROL,Paul-the-Nomad wants to eat caramel or a muffin,disjunction,dislikes|dislikes,AB,,N,caramel,a muffin,dislikes,dislikes,Nomad,,,1488,caramel or a muffin,n,html-keyboard-response,748,2.1.0,838558,EXPERIMENTAL,695fcea7a80091f158646750,2531,b86f8bd6-71b8-4e7e-a46b-bdcbcfae58ee,2404,1768864783500,1768865638561,00:14:15,FINISHED,696e824812786c0f3a8b7680,696ebbfb24c93378939d9785,N,N,DOUBLE_CONTROL,dislikes|dislikes,AB
N,want,DC43,DOUBLE_CONTROL,Dorothy-the-Nomad wants to eat a meatball or a kebab,disjunction,accepts|accepts,AB,,N,a meatball,a kebab,accepts,accepts,Nomad,,,1067,a meatball or a kebab,b,html-keyboard-response,753,2.1.0,842152,EXPERIMENTAL,695fcea7a80091f158646750,2531,b86f8bd6-71b8-4e7e-a46b-bdcbcfae58ee,2404,1768864783500,1768865638561,00:14:15,FINISHED,696e824812786c0f3a8b7680,696ebbfb24c93378939d9785,N,N,DOUBLE_CONTROL,accepts|accepts,AB
Y,want,DC50,DOUBLE_CONTROL,Patricia-the-Nomad wants to eat a strawberry or a peach,disjunction,wants|wants,AB,,Y,a strawberry,a peach,wants,wants,Nomad,,,1378,a strawberry or a peach,b,html-keyboard-response,758,2.1.0,846053,EXPERIMENTAL,695fcea7a80091f158646750,2531,b86f8bd6-71b8-4e7e-a46b-bdcbcfae58ee,2404,1768864783500,1768865638561,00:14:15,FINISHED,696e824812786c0f3a8b7680,696ebbfb24c93378939d9785,Y,Y,DOUBLE_CONTROL,wants|wants,AB
Y/N,want,EX107,EXPERIMENTAL,Betty-the-Nomad wants to eat caramel or a mango,disjunction,wants|dislikes,BA,,NA,caramel,a mango,dislikes,wants,Nomad,,,824,caramel or a mango,n,html-keyboard-response,763,2.1.0,849425,EXPERIMENTAL,695fcea7a80091f158646750,2531,b86f8bd6-71b8-4e7e-a46b-bdcbcfae58ee,2404,1768864783500,1768865638561,00:14:15,FINISHED,696e824812786c0f3a8b7680,696ebbfb24c93378939d9785,Y/N,NA,EXPERIMENTAL,wants|dislikes,BA
N,prefer,PR27,PREFER_SAME,Betty-the-Urbanite prefers to eat caramel rather than a muffin,preference,wants_vs_wants,AB,eq,N,caramel,a muffin,wants,wants,Urbanite,Your answer is correct. Betty-the-Urbanite equally likes caramel and a muffin.,Your answer is incorrect. Betty-the-Urbanite equally likes caramel and a muffin.,5903,caramel rather than a muffin,b,html-keyboard-response,4,2.1.0,83531,PRACTICE,59a734ce0c87a000017481ed,2533,10159d24-75cd-4ec8-b5b3-581a7f460bee,2406,1768865019508,1768865701680,00:11:22,FINISHED,696e824812786c0f3a8b7680,696ebceb40f9101196f6f136,N,N,PREFER_SAME,wants_vs_wants,AB
N,prefer,PR30,PREFER_SAME,Emily-the-Nomad prefers to eat a strawberry rather than a peach,preference,wants_vs_wants,AB,eq,N,a strawberry,a peach,wants,wants,Nomad,Your answer is correct. Emily-the-Nomad equally likes a strawberry and a peach.,Your answer is incorrect. Emily-the-Nomad equally likes a strawberry and a peach.,2506,a strawberry rather than a peach,n,html-keyboard-response,10,2.1.0,92417,PRACTICE,59a734ce0c87a000017481ed,2533,10159d24-75cd-4ec8-b5b3-581a7f460bee,2406,1768865019508,1768865701680,00:11:22,FINISHED,696e824812786c0f3a8b7680,696ebceb40f9101196f6f136,N,N,PREFER_SAME,wants_vs_wants,AB
N,prefer,PR31,PREFER_SAME,Jessica-the-Nomad prefers to eat a grapefruit rather than a strawberry,preference,wants_vs_wants,AB,eq,N,a grapefruit,a strawberry,wants,wants,Nomad,Your answer is correct. Jessica-the-Nomad equally likes a grapefruit and a strawberry.,Your answer is incorrect. Jessica-the-Nomad equally likes a grapefruit and a strawberry.,1261,a grapefruit rather than a strawberry,n,html-keyboard-response,16,2.1.0,97802,PRACTICE,59a734ce0c87a000017481ed,2533,10159d24-75cd-4ec8-b5b3-581a7f460bee,2406,1768865019508,1768865701680,00:11:22,FINISHED,696e824812786c0f3a8b7680,696ebceb40f9101196f6f136,N,N,PREFER_SAME,wants_vs_wants,AB
N,prefer,PR21,PREFER_DIFFERENT,Lisa-the-Nomad prefers to eat a chocolate rather than a burger,preference,dislikes_vs_accepts,BA,lt,N,a chocolate,a burger,dislikes,accepts,Nomad,Your answer is correct. Lisa-the-Nomad never prefers sweets to meat.,Your answer is incorrect. Lisa-the-Nomad never prefers sweets to meat.,1965,a chocolate rather than a burger,n,html-keyboard-response,22,2.1.0,103584,PRACTICE,59a734ce0c87a000017481ed,2533,10159d24-75cd-4ec8-b5b3-581a7f460bee,2406,1768865019508,1768865701680,00:11:22,FINISHED,696e824812786c0f3a8b7680,696ebceb40f9101196f6f136,N,N,PREFER_DIFFERENT,dislikes_vs_accepts,BA
Y,prefer,PR22,PREFER_DIFFERENT,Kimberly-the-Nomad prefers to eat a cranberry rather than a burger,preference,wants_vs_accepts,AB,gt,Y,a cranberry,a burger,wants,accepts,Nomad,Your answer is correct. Kimberly-the-Nomad always prefers fruit to meat.,Your answer is incorrect. Kimberly-the-Nomad always prefers fruit to meat.,1467,a cranberry rather than a burger,b,html-keyboard-response,28,2.1.0,109877,PRACTICE,59a734ce0c87a000017481ed,2533,10159d24-75cd-4ec8-b5b3-581a7f460bee,2406,1768865019508,1768865701680,00:11:22,FINISHED,696e824812786c0f3a8b7680,696ebceb40f9101196f6f136,Y,Y,PREFER_DIFFERENT,wants_vs_accepts,AB
Y,want,PR9,DOUBLE_CONTROL,Margaret-the-Urbanite wants to eat a donut or a brownie,disjunction,wants|wants,BA,,Y,a donut,a brownie,wants,wants,Urbanite,Your answer is correct. Margaret-the-Urbanite always wants to eat sweets.,Your answer is incorrect. Margaret-the-Urbanite always wants to eat sweets.,2493,a donut or a brownie,b,html-keyboard-response,34,2.1.0,116536,PRACTICE,59a734ce0c87a000017481ed,2533,10159d24-75cd-4ec8-b5b3-581a7f460bee,2406,1768865019508,1768865701680,00:11:22,FINISHED,696e824812786c0f3a8b7680,696ebceb40f9101196f6f136,Y,Y,DOUBLE_CONTROL,wants|wants,BA
N,prefer,PR28,PREFER_SAME,Robert-the-Nomad prefers to eat pork rather than ribs,preference,accepts_vs_accepts,AB,eq,N,pork,ribs,accepts,accepts,Nomad,Your answer is correct. Robert-the-Nomad equally likes pork and ribs.,Your answer is incorrect. Robert-the-Nomad equally likes pork and ribs.,1624,pork rather than ribs,n,html-keyboard-response,40,2.1.0,121493,PRACTICE,59a734ce0c87a000017481ed,2533,10159d24-75cd-4ec8-b5b3-581a7f460bee,2406,1768865019508,1768865701680,00:11:22,FINISHED,696e824812786c0f3a8b7680,696ebceb40f9101196f6f136,N,N,PREFER_SAME,accepts_vs_accepts,AB
Y,prefer,PR16,PREFER_DIFFERENT,Ashley-the-Urbanite prefers to eat a hotdog rather than a cherry,preference,accepts_vs_dislikes,AB,gt,Y,a hotdog,a cherry,accepts,dislikes,Urbanite,Your answer is correct. Ashley-the-Urbanite always prefers meat to fruit.,Your answer is incorrect. Ashley-the-Urbanite always prefers meat to fruit.,1251,a hotdog rather than a cherry,b,html-keyboard-response,46,2.1.0,126168,PRACTICE,59a734ce0c87a000017481ed,2533,10159d24-75cd-4ec8-b5b3-581a7f460bee,2406,1768865019508,1768865701680,00:11:22,FINISHED,696e824812786c0f3a8b7680,696ebceb40f9101196f6f136,Y,Y,PREFER_DIFFERENT,accepts_vs_dislikes,AB
Y,want,PR5,SINGLE_CONTROL,Elizabeth-the-Nomad wants to eat a cherry,single,wants,single,,Y,a cherry,,wants,,Nomad,Your answer is correct. Elizabeth-the-Nomad always wants to eat fruit.,Your answer is incorrect. Elizabeth-the-Nomad always wants to eat fruit.,1186,a cherry,b,html-keyboard-response,52,2.1.0,130382,PRACTICE,59a734ce0c87a000017481ed,2533,10159d24-75cd-4ec8-b5b3-581a7f460bee,2406,1768865019508,1768865701680,00:11:22,FINISHED,696e824812786c0f3a8b7680,696ebceb40f9101196f6f136,Y,Y,SINGLE_CONTROL,wants,single
N,want,PR2,SINGLE_CONTROL,Christopher-the-Urbanite wants to eat a cranberry,single,dislikes,single,,N,a cranberry,,dislikes,,Urbanite,Your answer is correct. Christopher-the-Urbanite never wants to eat fruit.,Your answer is incorrect. Christopher-the-Urbanite never wants to eat fruit.,673,a cranberry,n,html-keyboard-response,58,2.1.0,134144,PRACTICE,59a734ce0c87a000017481ed,2533,10159d24-75cd-4ec8-b5b3-581a7f460bee,2406,1768865019508,1768865701680,00:11:22,FINISHED,696e824812786c0f3a8b7680,696ebceb40f9101196f6f136,N,N,SINGLE_CONTROL,dislikes,single
N,want,PR6,SINGLE_CONTROL,Nancy-the-Nomad wants to eat a muffin,single,dislikes,single,,N,a muffin,,dislikes,,Nomad,Your answer is correct. Nancy-the-Nomad never wants to eat sweets.,Your answer is incorrect. Nancy-the-Nomad never wants to eat sweets.,703,a muffin,n,html-keyboard-response,64,2.1.0,138490,PRACTICE,59a734ce0c87a000017481ed,2533,10159d24-75cd-4ec8-b5b3-581a7f460bee,2406,1768865019508,1768865701680,00:11:22,FINISHED,696e824812786c0f3a8b7680,696ebceb40f9101196f6f136,N,N,SINGLE_CONTROL,dislikes,single
N,want,PR7,SINGLE_CONTROL,Daniel-the-Nomad wants to eat caramel,single,dislikes,single,,N,caramel,,dislikes,,Nomad,Your answer is correct. Daniel-the-Nomad never wants to eat sweets.,Your answer is incorrect. Daniel-the-Nomad never wants to eat sweets.,1082,caramel,n,html-keyboard-response,70,2.1.0,142857,PRACTICE,59a734ce0c87a000017481ed,2533,10159d24-75cd-4ec8-b5b3-581a7f460bee,2406,1768865019508,1768865701680,00:11:22,FINISHED,696e824812786c0f3a8b7680,696ebceb40f9101196f6f136,N,N,SINGLE_CONTROL,dislikes,single
N,prefer,PR24,PREFER_SAME,Joshua-the-Urbanite prefers to eat a sausage rather than a meatball,preference,accepts_vs_accepts,AB,eq,N,a sausage,a meatball,accepts,accepts,Urbanite,Your answer is correct. Joshua-the-Urbanite equally likes a sausage and a meatball.,Your answer is incorrect. Joshua-the-Urbanite equally likes a sausage and a meatball.,1642,a sausage rather than a meatball,n,html-keyboard-response,76,2.1.0,147649,PRACTICE,59a734ce0c87a000017481ed,2533,10159d24-75cd-4ec8-b5b3-581a7f460bee,2406,1768865019508,1768865701680,00:11:22,FINISHED,696e824812786c0f3a8b7680,696ebceb40f9101196f6f136,N,N,PREFER_SAME,accepts_vs_accepts,AB
N,prefer,PR26,PREFER_SAME,Donna-the-Urbanite prefers to eat a muffin rather than a cake,preference,wants_vs_wants,AB,eq,N,a muffin,a cake,wants,wants,Urbanite,Your answer is correct. Donna-the-Urbanite equally likes a muffin and a cake.,Your answer is incorrect. Donna-the-Urbanite equally likes a muffin and a cake.,1210,a muffin rather than a cake,n,html-keyboard-response,82,2.1.0,151984,PRACTICE,59a734ce0c87a000017481ed,2533,10159d24-75cd-4ec8-b5b3-581a7f460bee,2406,1768865019508,1768865701680,00:11:22,FINISHED,696e824812786c0f3a8b7680,696ebceb40f9101196f6f136,N,N,PREFER_SAME,wants_vs_wants,AB
N,prefer,PR23,PREFER_DIFFERENT,Karen-the-Nomad prefers to eat a kebab rather than an apple,preference,accepts_vs_wants,BA,lt,N,a kebab,an apple,accepts,wants,Nomad,Your answer is correct. Karen-the-Nomad never prefers meat to fruit.,Your answer is incorrect. Karen-the-Nomad never prefers meat to fruit.,1629,a kebab rather than an apple,b,html-keyboard-response,88,2.1.0,156662,PRACTICE,59a734ce0c87a000017481ed,2533,10159d24-75cd-4ec8-b5b3-581a7f460bee,2406,1768865019508,1768865701680,00:11:22,FINISHED,696e824812786c0f3a8b7680,696ebceb40f9101196f6f136,N,N,PREFER_DIFFERENT,accepts_vs_wants,BA
Y,want,PR0,SINGLE_CONTROL,Charles-the-Urbanite wants to eat a chocolate,single,wants,single,,Y,a chocolate,,wants,,Urbanite,Your answer is correct. Charles-the-Urbanite always wants to eat sweets.,Your answer is incorrect. Charles-the-Urbanite always wants to eat sweets.,925,a chocolate,b,html-keyboard-response,94,2.1.0,161770,PRACTICE,59a734ce0c87a000017481ed,2533,10159d24-75cd-4ec8-b5b3-581a7f460bee,2406,1768865019508,1768865701680,00:11:22,FINISHED,696e824812786c0f3a8b7680,696ebceb40f9101196f6f136,Y,Y,SINGLE_CONTROL,wants,single
Y,prefer,PR18,PREFER_DIFFERENT,Anthony-the-Urbanite prefers to eat a donut rather than ribs,preference,wants_vs_accepts,AB,gt,Y,a donut,ribs,wants,accepts,Urbanite,Your answer is correct. Anthony-the-Urbanite always prefers sweets to meat.,Your answer is incorrect. Anthony-the-Urbanite always prefers sweets to meat.,781,a donut rather than ribs,b,html-keyboard-response,100,2.1.0,165603,PRACTICE,59a734ce0c87a000017481ed,2533,10159d24-75cd-4ec8-b5b3-581a7f460bee,2406,1768865019508,1768865701680,00:11:22,FINISHED,696e824812786c0f3a8b7680,696ebceb40f9101196f6f136,Y,Y,PREFER_DIFFERENT,wants_vs_accepts,AB
Y,prefer,PR20,PREFER_DIFFERENT,Mary-the-Nomad prefers to eat a steak rather than a brownie,preference,accepts_vs_dislikes,AB,gt,Y,a steak,a brownie,accepts,dislikes,Nomad,Your answer is correct. Mary-the-Nomad always prefers meat to sweets.,Your answer is incorrect. Mary-the-Nomad always prefers meat to sweets.,1478,a steak rather than a brownie,b,html-keyboard-response,106,2.1.0,170097,PRACTICE,59a734ce0c87a000017481ed,2533,10159d24-75cd-4ec8-b5b3-581a7f460bee,2406,1768865019508,1768865701680,00:11:22,FINISHED,696e824812786c0f3a8b7680,696ebceb40f9101196f6f136,Y,Y,PREFER_DIFFERENT,accepts_vs_dislikes,AB
N,want,PR11,DOUBLE_CONTROL,Sarah-the-Urbanite wants to eat a strawberry or a grapefruit,disjunction,dislikes|dislikes,BA,,N,a strawberry,a grapefruit,dislikes,dislikes,Urbanite,Your answer is correct. Sarah-the-Urbanite never wants to eat fruit.,Your answer is incorrect. Sarah-the-Urbanite never wants to eat fruit.,807,a strawberry or a grapefruit,n,html-keyboard-response,112,2.1.0,173890,PRACTICE,59a734ce0c87a000017481ed,2533,10159d24-75cd-4ec8-b5b3-581a7f460bee,2406,1768865019508,1768865701680,00:11:22,FINISHED,696e824812786c0f3a8b7680,696ebceb40f9101196f6f136,N,N,DOUBLE_CONTROL,dislikes|dislikes,BA
Y,want,PR4,SINGLE_CONTROL,Barbara-the-Nomad wants to eat a pear,single,wants,single,,Y,a pear,,wants,,Nomad,Your answer is correct. Barbara-the-Nomad always wants to eat fruit.,Your answer is incorrect. Barbara-the-Nomad always wants to eat fruit.,820,a pear,b,html-keyboard-response,118,2.1.0,177859,PRACTICE,59a734ce0c87a000017481ed,2533,10159d24-75cd-4ec8-b5b3-581a7f460bee,2406,1768865019508,1768865701680,00:11:22,FINISHED,696e824812786c0f3a8b7680,696ebceb40f9101196f6f136,Y,Y,SINGLE_CONTROL,wants,single
Y,want,PR12,DOUBLE_CONTROL,Linda-the-Nomad wants to eat a cranberry or a grapefruit,disjunction,wants|wants,AB,,Y,a cranberry,a grapefruit,wants,wants,Nomad,Your answer is correct. Linda-the-Nomad always wants to eat fruit.,Your answer is incorrect. Linda-the-Nomad always wants to eat fruit.,588,a cranberry or a grapefruit,b,html-keyboard-response,124,2.1.0,181419,PRACTICE,59a734ce0c87a000017481ed,2533,10159d24-75cd-4ec8-b5b3-581a7f460bee,2406,1768865019508,1768865701680,00:11:22,FINISHED,696e824812786c0f3a8b7680,696ebceb40f9101196f6f136,Y,Y,DOUBLE_CONTROL,wants|wants,AB
Y,want,PR13,DOUBLE_CONTROL,Andrew-the-Nomad wants to eat a cranberry or an apple,disjunction,wants|wants,BA,,Y,a cranberry,an apple,wants,wants,Nomad,Your answer is correct. Andrew-the-Nomad always wants to eat fruit.,Your answer is incorrect. Andrew-the-Nomad always wants to eat fruit.,548,a cranberry or an apple,b,html-keyboard-response,130,2.1.0,184895,PRACTICE,59a734ce0c87a000017481ed,2533,10159d24-75cd-4ec8-b5b3-581a7f460bee,2406,1768865019508,1768865701680,00:11:22,FINISHED,696e824812786c0f3a8b7680,696ebceb40f9101196f6f136,Y,Y,DOUBLE_CONTROL,wants|wants,BA
N,prefer,PR25,PREFER_SAME,Steven-the-Urbanite prefers to eat a meatloaf rather than a sausage,preference,accepts_vs_accepts,AB,eq,N,a meatloaf,a sausage,accepts,accepts,Urbanite,Your answer is correct. Steven-the-Urbanite equally likes a meatloaf and a sausage.,Your answer is incorrect. Steven-the-Urbanite equally likes a meatloaf and a sausage.,1719,a meatloaf rather than a sausage,n,html-keyboard-response,136,2.1.0,189413,PRACTICE,59a734ce0c87a000017481ed,2533,10159d24-75cd-4ec8-b5b3-581a7f460bee,2406,1768865019508,1768865701680,00:11:22,FINISHED,696e824812786c0f3a8b7680,696ebceb40f9101196f6f136,N,N,PREFER_SAME,accepts_vs_accepts,AB
N,want,PR10,DOUBLE_CONTROL,Patricia-the-Urbanite wants to eat a strawberry or a peach,disjunction,dislikes|dislikes,AB,,N,a strawberry,a peach,dislikes,dislikes,Urbanite,Your answer is correct. Patricia-the-Urbanite never wants to eat fruit.,Your answer is incorrect. Patricia-the-Urbanite never wants to eat fruit.,684,a strawberry or a peach,n,html-keyboard-response,142,2.1.0,193408,PRACTICE,59a734ce0c87a000017481ed,2533,10159d24-75cd-4ec8-b5b3-581a7f460bee,2406,1768865019508,1768865701680,00:11:22,FINISHED,696e824812786c0f3a8b7680,696ebceb40f9101196f6f136,N,N,DOUBLE_CONTROL,dislikes|dislikes,AB
N,prefer,PR19,PREFER_DIFFERENT,Jennifer-the-Urbanite prefers to eat pork rather than a brownie,preference,accepts_vs_wants,BA,lt,N,pork,a brownie,accepts,wants,Urbanite,Your answer is correct. Jennifer-the-Urbanite never prefers meat to sweets.,Your answer is incorrect. Jennifer-the-Urbanite never prefers meat to sweets.,1255,pork rather than a brownie,n,html-keyboard-response,148,2.1.0,197675,PRACTICE,59a734ce0c87a000017481ed,2533,10159d24-75cd-4ec8-b5b3-581a7f460bee,2406,1768865019508,1768865701680,00:11:22,FINISHED,696e824812786c0f3a8b7680,696ebceb40f9101196f6f136,N,N,PREFER_DIFFERENT,accepts_vs_wants,BA
N,prefer,PR29,PREFER_SAME,James-the-Nomad prefers to eat beef rather than pork,preference,accepts_vs_accepts,AB,eq,N,beef,pork,accepts,accepts,Nomad,Your answer is correct. James-the-Nomad equally likes beef and pork.,Your answer is incorrect. James-the-Nomad equally likes beef and pork.,1284,beef rather than pork,n,html-keyboard-response,154,2.1.0,202081,PRACTICE,59a734ce0c87a000017481ed,2533,10159d24-75cd-4ec8-b5b3-581a7f460bee,2406,1768865019508,1768865701680,00:11:22,FINISHED,696e824812786c0f3a8b7680,696ebceb40f9101196f6f136,N,N,PREFER_SAME,accepts_vs_accepts,AB
Y,want,PR1,SINGLE_CONTROL,Michael-the-Urbanite wants to eat a cookie,single,wants,single,,Y,a cookie,,wants,,Urbanite,Your answer is correct. Michael-the-Urbanite always wants to eat sweets.,Your answer is incorrect. Michael-the-Urbanite always wants to eat sweets.,1369,a cookie,b,html-keyboard-response,160,2.1.0,206526,PRACTICE,59a734ce0c87a000017481ed,2533,10159d24-75cd-4ec8-b5b3-581a7f460bee,2406,1768865019508,1768865701680,00:11:22,FINISHED,696e824812786c0f3a8b7680,696ebceb40f9101196f6f136,Y,Y,SINGLE_CONTROL,wants,single
N,prefer,PR17,PREFER_DIFFERENT,Susan-the-Urbanite prefers to eat an orange rather than ribs,preference,dislikes_vs_accepts,BA,lt,N,an orange,ribs,dislikes,accepts,Urbanite,Your answer is correct. Susan-the-Urbanite never prefers fruit to meat.,Your answer is incorrect. Susan-the-Urbanite never prefers fruit to meat.,841,an orange rather than ribs,n,html-keyboard-response,166,2.1.0,210296,PRACTICE,59a734ce0c87a000017481ed,2533,10159d24-75cd-4ec8-b5b3-581a7f460bee,2406,1768865019508,1768865701680,00:11:22,FINISHED,696e824812786c0f3a8b7680,696ebceb40f9101196f6f136,N,N,PREFER_DIFFERENT,dislikes_vs_accepts,BA
N,want,PR3,SINGLE_CONTROL,Dorothy-the-Urbanite wants to eat an apple,single,dislikes,single,,N,an apple,,dislikes,,Urbanite,Your answer is correct. Dorothy-the-Urbanite never wants to eat fruit.,Your answer is incorrect. Dorothy-the-Urbanite never wants to eat fruit.,835,an apple,n,html-keyboard-response,172,2.1.0,214052,PRACTICE,59a734ce0c87a000017481ed,2533,10159d24-75cd-4ec8-b5b3-581a7f460bee,2406,1768865019508,1768865701680,00:11:22,FINISHED,696e824812786c0f3a8b7680,696ebceb40f9101196f6f136,N,N,SINGLE_CONTROL,dislikes,single
Y,want,PR8,DOUBLE_CONTROL,William-the-Urbanite wants to eat a donut or caramel,disjunction,wants|wants,AB,,Y,a donut,caramel,wants,wants,Urbanite,Your answer is correct. William-the-Urbanite always wants to eat sweets.,Your answer is incorrect. William-the-Urbanite always wants to eat sweets.,724,a donut or caramel,b,html-keyboard-response,178,2.1.0,218309,PRACTICE,59a734ce0c87a000017481ed,2533,10159d24-75cd-4ec8-b5b3-581a7f460bee,2406,1768865019508,1768865701680,00:11:22,FINISHED,696e824812786c0f3a8b7680,696ebceb40f9101196f6f136,Y,Y,DOUBLE_CONTROL,wants|wants,AB
N,want,PR14,DOUBLE_CONTROL,Matthew-the-Nomad wants to eat a cupcake or a lollipop,disjunction,dislikes|dislikes,AB,,N,a cupcake,a lollipop,dislikes,dislikes,Nomad,Your answer is correct. Matthew-the-Nomad never wants to eat sweets.,Your answer is incorrect. Matthew-the-Nomad never wants to eat sweets.,651,a cupcake or a lollipop,n,html-keyboard-response,184,2.1.0,221959,PRACTICE,59a734ce0c87a000017481ed,2533,10159d24-75cd-4ec8-b5b3-581a7f460bee,2406,1768865019508,1768865701680,00:11:22,FINISHED,696e824812786c0f3a8b7680,696ebceb40f9101196f6f136,N,N,DOUBLE_CONTROL,dislikes|dislikes,AB
N,want,PR15,DOUBLE_CONTROL,Sandra-the-Nomad wants to eat a cupcake or a cake,disjunction,dislikes|dislikes,BA,,N,a cupcake,a cake,dislikes,dislikes,Nomad,Your answer is correct. Sandra-the-Nomad never wants to eat sweets.,Your answer is incorrect. Sandra-the-Nomad never wants to eat sweets.,702,a cupcake or a cake,n,html-keyboard-response,190,2.1.0,225536,PRACTICE,59a734ce0c87a000017481ed,2533,10159d24-75cd-4ec8-b5b3-581a7f460bee,2406,1768865019508,1768865701680,00:11:22,FINISHED,696e824812786c0f3a8b7680,696ebceb40f9101196f6f136,N,N,DOUBLE_CONTROL,dislikes|dislikes,BA
N,want,DC38,DOUBLE_CONTROL,John-the-Nomad wants to eat a donut or caramel,disjunction,dislikes|dislikes,AB,,N,a donut,caramel,dislikes,dislikes,Nomad,,,757,a donut or caramel,n,html-keyboard-response,197,2.1.0,239300,EXPERIMENTAL,59a734ce0c87a000017481ed,2533,10159d24-75cd-4ec8-b5b3-581a7f460bee,2406,1768865019508,1768865701680,00:11:22,FINISHED,696e824812786c0f3a8b7680,696ebceb40f9101196f6f136,N,N,DOUBLE_CONTROL,dislikes|dislikes,AB
N,want,DC22,DOUBLE_CONTROL,Kimberly-the-Urbanite wants to eat a grapefruit or a cranberry,disjunction,dislikes|dislikes,BA,,N,a grapefruit,a cranberry,dislikes,dislikes,Urbanite,,,762,a grapefruit or a cranberry,n,html-keyboard-response,202,2.1.0,242593,EXPERIMENTAL,59a734ce0c87a000017481ed,2533,10159d24-75cd-4ec8-b5b3-581a7f460bee,2406,1768865019508,1768865701680,00:11:22,FINISHED,696e824812786c0f3a8b7680,696ebceb40f9101196f6f136,N,N,DOUBLE_CONTROL,dislikes|dislikes,BA
Y,want,DC33,DOUBLE_CONTROL,Richard-the-Urbanite wants to eat a biscuit or a lollipop,disjunction,wants|wants,BA,,Y,a biscuit,a lollipop,wants,wants,Urbanite,,,826,a biscuit or a lollipop,b,html-keyboard-response,207,2.1.0,245978,EXPERIMENTAL,59a734ce0c87a000017481ed,2533,10159d24-75cd-4ec8-b5b3-581a7f460bee,2406,1768865019508,1768865701680,00:11:22,FINISHED,696e824812786c0f3a8b7680,696ebceb40f9101196f6f136,Y,Y,DOUBLE_CONTROL,wants|wants,BA
N,prefer,PS89,PREFER_SAME,Margaret-the-Nomad prefers to eat a peach rather than a plum,preference,wants_vs_wants,AB,eq,N,a peach,a plum,wants,wants,Nomad,,,1149,a peach rather than a plum,n,html-keyboard-response,212,2.1.0,249647,EXPERIMENTAL,59a734ce0c87a000017481ed,2533,10159d24-75cd-4ec8-b5b3-581a7f460bee,2406,1768865019508,1768865701680,00:11:22,FINISHED,696e824812786c0f3a8b7680,696ebceb40f9101196f6f136,N,N,PREFER_SAME,wants_vs_wants,AB
N,want,DC25,DOUBLE_CONTROL,Steven-the-Urbanite wants to eat a meatloaf or a sausage,disjunction,accepts|accepts,AB,,N,a meatloaf,a sausage,accepts,accepts,Urbanite,,,2626,a meatloaf or a sausage,b,html-keyboard-response,217,2.1.0,254817,EXPERIMENTAL,59a734ce0c87a000017481ed,2533,10159d24-75cd-4ec8-b5b3-581a7f460bee,2406,1768865019508,1768865701680,00:11:22,FINISHED,696e824812786c0f3a8b7680,696ebceb40f9101196f6f136,N,N,DOUBLE_CONTROL,accepts|accepts,AB
Y,want,DC30,DOUBLE_CONTROL,Emily-the-Urbanite wants to eat a chocolate or a brownie,disjunction,wants|wants,AB,,Y,a chocolate,a brownie,wants,wants,Urbanite,,,596,a chocolate or a brownie,b,html-keyboard-response,222,2.1.0,257931,EXPERIMENTAL,59a734ce0c87a000017481ed,2533,10159d24-75cd-4ec8-b5b3-581a7f460bee,2406,1768865019508,1768865701680,00:11:22,FINISHED,696e824812786c0f3a8b7680,696ebceb40f9101196f6f136,Y,Y,DOUBLE_CONTROL,wants|wants,AB
N,prefer,PD77,PREFER_DIFFERENT,Paul-the-Nomad prefers to eat a hotdog rather than a mango,preference,accepts_vs_wants,BA,lt,N,a hotdog,a mango,accepts,wants,Nomad,,,1519,a hotdog rather than a mango,n,html-keyboard-response,227,2.1.0,261964,EXPERIMENTAL,59a734ce0c87a000017481ed,2533,10159d24-75cd-4ec8-b5b3-581a7f460bee,2406,1768865019508,1768865701680,00:11:22,FINISHED,696e824812786c0f3a8b7680,696ebceb40f9101196f6f136,N,N,PREFER_DIFFERENT,accepts_vs_wants,BA
Y/N,want,EX100,EXPERIMENTAL,Mary-the-Urbanite wants to eat a steak or a chocolate,disjunction,wants|accepts,BA,,NA,a steak,a chocolate,accepts,wants,Urbanite,,,3126,a steak or a chocolate,b,html-keyboard-response,232,2.1.0,267619,EXPERIMENTAL,59a734ce0c87a000017481ed,2533,10159d24-75cd-4ec8-b5b3-581a7f460bee,2406,1768865019508,1768865701680,00:11:22,FINISHED,696e824812786c0f3a8b7680,696ebceb40f9101196f6f136,Y/N,NA,EXPERIMENTAL,wants|accepts,BA
N,want,SC9,SINGLE_CONTROL,Margaret-the-Nomad wants to eat a brownie,single,dislikes,single,,N,a brownie,,dislikes,,Nomad,,,805,a brownie,n,html-keyboard-response,237,2.1.0,270948,EXPERIMENTAL,59a734ce0c87a000017481ed,2533,10159d24-75cd-4ec8-b5b3-581a7f460bee,2406,1768865019508,1768865701680,00:11:22,FINISHED,696e824812786c0f3a8b7680,696ebceb40f9101196f6f136,N,N,SINGLE_CONTROL,dislikes,single
N,prefer,PS83,PREFER_SAME,Dorothy-the-Urbanite prefers to eat a lollipop rather than a biscuit,preference,wants_vs_wants,AB,eq,N,a lollipop,a biscuit,wants,wants,Urbanite,,,1313,a lollipop rather than a biscuit,n,html-keyboard-response,242,2.1.0,274801,EXPERIMENTAL,59a734ce0c87a000017481ed,2533,10159d24-75cd-4ec8-b5b3-581a7f460bee,2406,1768865019508,1768865701680,00:11:22,FINISHED,696e824812786c0f3a8b7680,696ebceb40f9101196f6f136,N,N,PREFER_SAME,wants_vs_wants,AB
Y,prefer,PD66,PREFER_DIFFERENT,Donna-the-Nomad prefers to eat a hotdog rather than a cake,preference,accepts_vs_dislikes,AB,gt,Y,a hotdog,a cake,accepts,dislikes,Nomad,,,1618,a hotdog rather than a cake,b,html-keyboard-response,247,2.1.0,278961,EXPERIMENTAL,59a734ce0c87a000017481ed,2533,10159d24-75cd-4ec8-b5b3-581a7f460bee,2406,1768865019508,1768865701680,00:11:22,FINISHED,696e824812786c0f3a8b7680,696ebceb40f9101196f6f136,Y,Y,PREFER_DIFFERENT,accepts_vs_dislikes,AB
Y/N,want,EX111,EXPERIMENTAL,Jessica-the-Nomad wants to eat a burger or a grapefruit,disjunction,wants|accepts,BA,,NA,a burger,a grapefruit,accepts,wants,Nomad,,,2096,a burger or a grapefruit,b,html-keyboard-response,252,2.1.0,283581,EXPERIMENTAL,59a734ce0c87a000017481ed,2533,10159d24-75cd-4ec8-b5b3-581a7f460bee,2406,1768865019508,1768865701680,00:11:22,FINISHED,696e824812786c0f3a8b7680,696ebceb40f9101196f6f136,Y/N,NA,EXPERIMENTAL,wants|accepts,BA
N,prefer,PD63,PREFER_DIFFERENT,Karen-the-Urbanite prefers to eat a kebab rather than a lollipop,preference,accepts_vs_wants,BA,lt,N,a kebab,a lollipop,accepts,wants,Urbanite,,,2471,a kebab rather than a lollipop,n,html-keyboard-response,257,2.1.0,288600,EXPERIMENTAL,59a734ce0c87a000017481ed,2533,10159d24-75cd-4ec8-b5b3-581a7f460bee,2406,1768865019508,1768865701680,00:11:22,FINISHED,696e824812786c0f3a8b7680,696ebceb40f9101196f6f136,N,N,PREFER_DIFFERENT,accepts_vs_wants,BA
Y,want,DC31,DOUBLE_CONTROL,Jessica-the-Urbanite wants to eat a cookie or a chocolate,disjunction,wants|wants,AB,,Y,a cookie,a chocolate,wants,wants,Urbanite,,,657,a cookie or a chocolate,b,html-keyboard-response,262,2.1.0,291807,EXPERIMENTAL,59a734ce0c87a000017481ed,2533,10159d24-75cd-4ec8-b5b3-581a7f460bee,2406,1768865019508,1768865701680,00:11:22,FINISHED,696e824812786c0f3a8b7680,696ebceb40f9101196f6f136,Y,Y,DOUBLE_CONTROL,wants|wants,AB
N,want,DC43,DOUBLE_CONTROL,Dorothy-the-Nomad wants to eat a meatball or a kebab,disjunction,accepts|accepts,AB,,N,a meatball,a kebab,accepts,accepts,Nomad,,,3138,a meatball or a kebab,b,html-keyboard-response,267,2.1.0,297475,EXPERIMENTAL,59a734ce0c87a000017481ed,2533,10159d24-75cd-4ec8-b5b3-581a7f460bee,2406,1768865019508,1768865701680,00:11:22,FINISHED,696e824812786c0f3a8b7680,696ebceb40f9101196f6f136,N,N,DOUBLE_CONTROL,accepts|accepts,AB
N,want,DC42,DOUBLE_CONTROL,Christopher-the-Nomad wants to eat a kebab or a burger,disjunction,accepts|accepts,AB,,N,a kebab,a burger,accepts,accepts,Nomad,,,1207,a kebab or a burger,b,html-keyboard-response,272,2.1.0,301216,EXPERIMENTAL,59a734ce0c87a000017481ed,2533,10159d24-75cd-4ec8-b5b3-581a7f460bee,2406,1768865019508,1768865701680,00:11:22,FINISHED,696e824812786c0f3a8b7680,696ebceb40f9101196f6f136,N,N,DOUBLE_CONTROL,accepts|accepts,AB
N,prefer,PD69,PREFER_DIFFERENT,James-the-Nomad prefers to eat a donut rather than beef,preference,dislikes_vs_accepts,BA,lt,N,a donut,beef,dislikes,accepts,Nomad,,,1980,a donut rather than beef,n,html-keyboard-response,277,2.1.0,305725,EXPERIMENTAL,59a734ce0c87a000017481ed,2533,10159d24-75cd-4ec8-b5b3-581a7f460bee,2406,1768865019508,1768865701680,00:11:22,FINISHED,696e824812786c0f3a8b7680,696ebceb40f9101196f6f136,N,N,PREFER_DIFFERENT,dislikes_vs_accepts,BA
N,prefer,PS87,PREFER_SAME,Daniel-the-Nomad prefers to eat a mango rather than an orange,preference,wants_vs_wants,AB,eq,N,a mango,an orange,wants,wants,Nomad,,,1807,a mango rather than an orange,b,html-keyboard-response,282,2.1.0,310051,EXPERIMENTAL,59a734ce0c87a000017481ed,2533,10159d24-75cd-4ec8-b5b3-581a7f460bee,2406,1768865019508,1768865701680,00:11:22,FINISHED,696e824812786c0f3a8b7680,696ebceb40f9101196f6f136,N,N,PREFER_SAME,wants_vs_wants,AB
N,want,SC11,SINGLE_CONTROL,Sarah-the-Nomad wants to eat a cookie,single,dislikes,single,,N,a cookie,,dislikes,,Nomad,,,1233,a cookie,n,html-keyboard-response,287,2.1.0,313824,EXPERIMENTAL,59a734ce0c87a000017481ed,2533,10159d24-75cd-4ec8-b5b3-581a7f460bee,2406,1768865019508,1768865701680,00:11:22,FINISHED,696e824812786c0f3a8b7680,696ebceb40f9101196f6f136,N,N,SINGLE_CONTROL,dislikes,single
N,want,SC0,SINGLE_CONTROL,Charles-the-Urbanite wants to eat a strawberry,single,dislikes,single,,N,a strawberry,,dislikes,,Urbanite,,,733,a strawberry,n,html-keyboard-response,292,2.1.0,317089,EXPERIMENTAL,59a734ce0c87a000017481ed,2533,10159d24-75cd-4ec8-b5b3-581a7f460bee,2406,1768865019508,1768865701680,00:11:22,FINISHED,696e824812786c0f3a8b7680,696ebceb40f9101196f6f136,N,N,SINGLE_CONTROL,dislikes,single
Y/N,want,EX109,EXPERIMENTAL,James-the-Nomad wants to eat a peach or beef,disjunction,wants|accepts,AB,,NA,a peach,beef,wants,accepts,Nomad,,,749,a peach or beef,b,html-keyboard-response,297,2.1.0,320400,EXPERIMENTAL,59a734ce0c87a000017481ed,2533,10159d24-75cd-4ec8-b5b3-581a7f460bee,2406,1768865019508,1768865701680,00:11:22,FINISHED,696e824812786c0f3a8b7680,696ebceb40f9101196f6f136,Y/N,NA,EXPERIMENTAL,wants|accepts,AB
N,want,SC5,SINGLE_CONTROL,Elizabeth-the-Urbanite wants to eat a meatloaf,single,accepts,single,,N,a meatloaf,,accepts,,Urbanite,,,1083,a meatloaf,b,html-keyboard-response,302,2.1.0,324013,EXPERIMENTAL,59a734ce0c87a000017481ed,2533,10159d24-75cd-4ec8-b5b3-581a7f460bee,2406,1768865019508,1768865701680,00:11:22,FINISHED,696e824812786c0f3a8b7680,696ebceb40f9101196f6f136,N,N,SINGLE_CONTROL,accepts,single
Y,prefer,PD68,PREFER_DIFFERENT,Robert-the-Nomad prefers to eat pork rather than caramel,preference,accepts_vs_dislikes,AB,gt,Y,pork,caramel,accepts,dislikes,Nomad,,,1787,pork rather than caramel,b,html-keyboard-response,307,2.1.0,328336,EXPERIMENTAL,59a734ce0c87a000017481ed,2533,10159d24-75cd-4ec8-b5b3-581a7f460bee,2406,1768865019508,1768865701680,00:11:22,FINISHED,696e824812786c0f3a8b7680,696ebceb40f9101196f6f136,Y,Y,PREFER_DIFFERENT,accepts_vs_dislikes,AB
Y,prefer,PD60,PREFER_DIFFERENT,Mary-the-Urbanite prefers to eat a chocolate rather than beef,preference,wants_vs_accepts,AB,gt,Y,a chocolate,beef,wants,accepts,Urbanite,,,2359,a chocolate rather than beef,b,html-keyboard-response,312,2.1.0,333243,EXPERIMENTAL,59a734ce0c87a000017481ed,2533,10159d24-75cd-4ec8-b5b3-581a7f460bee,2406,1768865019508,1768865701680,00:11:22,FINISHED,696e824812786c0f3a8b7680,696ebceb40f9101196f6f136,Y,Y,PREFER_DIFFERENT,wants_vs_accepts,AB
N,prefer,PS82,PREFER_SAME,Christopher-the-Urbanite prefers to eat a biscuit rather than a cookie,preference,wants_vs_wants,AB,eq,N,a biscuit,a cookie,wants,wants,Urbanite,,,1408,a biscuit rather than a cookie,n,html-keyboard-response,317,2.1.0,337195,EXPERIMENTAL,59a734ce0c87a000017481ed,2533,10159d24-75cd-4ec8-b5b3-581a7f460bee,2406,1768865019508,1768865701680,00:11:22,FINISHED,696e824812786c0f3a8b7680,696ebceb40f9101196f6f136,N,N,PREFER_SAME,wants_vs_wants,AB
