correct,item,domain,pair_type,conclusion_form,scenario,template_id,premise,conclusion,rt,stimulus,response,trial_type,trial_index,plugin_version,time_elapsed,SESSION,PARTICIPANT,STIMULUS_VALID,STIMULUS_DOMAIN,STIMULUS_PAIR_TYPE
Y,P04,control,quantifier,,,0.0,Some blondes have dark eyes.,Some people with dark eyes are blondes.,17033,Premise: Some blondes have dark eyes. / Conclusion: Some people with dark eyes are blondes.,B,html-keyboard-response,2,2.1.0,42386,PRACTICE,661ec48c618b7a27e5a9077a,Y,control,quantifier
N,P01,control,conjunction,,,0.0,The tourist visited the castle and photographed the courtyard.,The tourist visited the cathedral.,13126,Premise: The tourist visited the castle and photographed the courtyard. / Conclusion: The tourist visited the cathedral.,N,html-keyboard-response,5,2.1.0,61427,PRACTICE,661ec48c618b7a27e5a9077a,N,control,conjunction
N,P07,control,presupposition,,,0.0,Mark won a car race.,Mark has never participated in a car race.,13156,Premise: Mark won a car race. / Conclusion: Mark has never participated in a car race.,N,html-keyboard-response,8,2.1.0,79277,PRACTICE,661ec48c618b7a27e5a9077a,N,control,presupposition
N,P05,control,quantifier,,,0.0,Some blondes have dark eyes.,Some blondes have dark clothes.,8868,Premise: Some blondes have dark eyes. / Conclusion: Some blondes have dark clothes.,N,html-keyboard-response,11,2.1.0,92544,PRACTICE,661ec48c618b7a27e5a9077a,N,control,quantifier
N,P03,control,conditional,,,0.0,"If Laura finishes preparing the detailed report today, she will send it to the entire team.",Laura will send the report to the team.,9855,"Premise: If Laura finishes preparing the detailed report today, she will send it to the entire team. / Conclusion: Laura will send the report to the team.",B,html-keyboard-response,14,2.1.0,106248,PRACTICE,661ec48c618b7a27e5a9077a,N,control,conditional
Y,P00,control,conjunction,,,0.0,Sophia stopped by the bakery and bought fresh bread.,Sophia went to the bakery.,6932,Premise: Sophia stopped by the bakery and bought fresh bread. / Conclusion: Sophia went to the bakery.,B,html-keyboard-response,17,2.1.0,116998,PRACTICE,661ec48c618b7a27e5a9077a,Y,control,conjunction
Y,P06,control,presupposition,,,0.0,Alice won a car race.,Alice participated in a car race.,4632,Premise: Alice won a car race. / Conclusion: Alice participated in a car race.,B,html-keyboard-response,20,2.1.0,125746,PRACTICE,661ec48c618b7a27e5a9077a,Y,control,presupposition
Y,P02,control,conditional,,,0.0,"Since heavy fog covered the valley, the hikers lost visibility.",The hikers could no longer see their surroundings clearly.,11873,"Premise: Since heavy fog covered the valley, the hikers lost visibility. / Conclusion: The hikers could no longer see their surroundings clearly.",B,html-keyboard-response,23,2.1.0,140889,PRACTICE,661ec48c618b7a27e5a9077a,Y,control,conditional
Y,C27,control,quantifier,,,,Every table is a piece of furniture.,"If you have a table in your room, you have a piece of furniture.",7693,"Premise: Every table is a piece of furniture. / Conclusion: If you have a table in your room, you have a piece of furniture.",B,html-keyboard-response,27,2.1.0,167879,EXPERIMENTAL,661ec48c618b7a27e5a9077a,Y,control,quantifier
?,M11,modal,must_and,AND,,,Cameron is required to pack the carry-on bag or book the train tickets.,Cameron is allowed to pack the carry-on bag and is allowed to book the train tickets.,17136,Premise: Cameron is required to pack the carry-on bag or book the train tickets. / Conclusion: Cameron is allowed to pack the carry-on bag and is allowed to book the train tickets.,B,html-keyboard-response,29,2.1.0,186020,EXPERIMENTAL,661ec48c618b7a27e5a9077a,?,modal,must_and
?,W33,want,want_mind_and,AND,,,Ryan wants to scrub the tile grout or paint the hallway.,Ryan is fine with scrubbing the tile grout and is fine with painting the hallway.,14163,Premise: Ryan wants to scrub the tile grout or paint the hallway. / Conclusion: Ryan is fine with scrubbing the tile grout and is fine with painting the hallway.,N,html-keyboard-response,31,2.1.0,201189,EXPERIMENTAL,661ec48c618b7a27e5a9077a,?,want,want_mind_and
?,W47,want,atleast_single_b,B,,,Sawyer wants to test the microphone or at least review the agenda.,Sawyer wants to review the agenda.,10013,Premise: Sawyer wants to test the microphone or at least review the agenda. / Conclusion: Sawyer wants to review the agenda.,B,html-keyboard-response,33,2.1.0,212208,EXPERIMENTAL,661ec48c618b7a27e5a9077a,?,want,atleast_single_b
?,M06,modal,allowed_single,A,,,Parker is free to renew the passport or arrange the airport ride.,Parker is free to renew the passport.,11281,Premise: Parker is free to renew the passport or arrange the airport ride. / Conclusion: Parker is free to renew the passport.,B,html-keyboard-response,35,2.1.0,224497,EXPERIMENTAL,661ec48c618b7a27e5a9077a,?,modal,allowed_single
?,W24,want,want_and,AND,,,Jordan wants to preheat the oven or grill the skewers.,Jordan wants to preheat the oven and wants to grill the skewers.,9281,Premise: Jordan wants to preheat the oven or grill the skewers. / Conclusion: Jordan wants to preheat the oven and wants to grill the skewers.,N,html-keyboard-response,37,2.1.0,234789,EXPERIMENTAL,661ec48c618b7a27e5a9077a,?,want,want_and
?,M15,modal,must_single,B,,,Reese is required to patch the wall crack or tighten the cabinet screws.,Reese is free to tighten the cabinet screws.,12131,Premise: Reese is required to patch the wall crack or tighten the cabinet screws. / Conclusion: Reese is free to tighten the cabinet screws.,N,html-keyboard-response,39,2.1.0,247935,EXPERIMENTAL,661ec48c618b7a27e5a9077a,?,modal,must_single
?,M14,modal,must_single,A,,,Dylan is expected to print the handouts or review the survey data.,Dylan is allowed to  print the handouts.,10603,Premise: Dylan is expected to print the handouts or review the survey data. / Conclusion: Dylan is allowed to  print the handouts.,N,html-keyboard-response,41,2.1.0,259543,EXPERIMENTAL,661ec48c618b7a27e5a9077a,?,modal,must_single
?,M09,modal,must_and,AND,,,Blair is supposed to frame the illustration or varnish the surface.,Blair is allowed to frame the illustration and is allowed to varnish the surface.,13526,Premise: Blair is supposed to frame the illustration or varnish the surface. / Conclusion: Blair is allowed to frame the illustration and is allowed to varnish the surface.,N,html-keyboard-response,43,2.1.0,274072,EXPERIMENTAL,661ec48c618b7a27e5a9077a,?,modal,must_and
?,W40,want,atleast_single_a,A,,,Charlie wants to trim the hedges or at least stake the tomato vines.,Charlie wants to trim the hedges.,9378,Premise: Charlie wants to trim the hedges or at least stake the tomato vines. / Conclusion: Charlie wants to trim the hedges.,B,html-keyboard-response,45,2.1.0,284463,EXPERIMENTAL,661ec48c618b7a27e5a9077a,?,want,atleast_single_a
N,C06,control,conjunction,,,,Sophie cleaned the guest room and changed all the bed linens.,Sophie attended a music festival.,6148,Premise: Sophie cleaned the guest room and changed all the bed linens. / Conclusion: Sophie attended a music festival.,N,html-keyboard-response,47,2.1.0,291620,EXPERIMENTAL,661ec48c618b7a27e5a9077a,N,control,conjunction
?,W39,want,want_mind_single,B,,,Remy wants to jog the trail loop or map the running route.,Remy has no objection to mapping the running route.,7477,Premise: Remy wants to jog the trail loop or map the running route. / Conclusion: Remy has no objection to mapping the running route.,N,html-keyboard-response,49,2.1.0,300106,EXPERIMENTAL,661ec48c618b7a27e5a9077a,?,want,want_mind_single
N,C47,control,presupposition,,,,"Thomas broke his leg, again.",Thomas broke his arm in the past.,5100,"Premise: Thomas broke his leg, again. / Conclusion: Thomas broke his arm in the past.",N,html-keyboard-response,51,2.1.0,306210,EXPERIMENTAL,661ec48c618b7a27e5a9077a,N,control,presupposition
N,C34,control,quantifier,,,,Everyone read at least one book.,There is a book that has been read by everyone.,8906,Premise: Everyone read at least one book. / Conclusion: There is a book that has been read by everyone.,N,html-keyboard-response,53,2.1.0,316118,EXPERIMENTAL,661ec48c618b7a27e5a9077a,N,control,quantifier
?,M02,modal,allowed_and,AND,,,Kennedy is free to harvest the cucumbers or compost the clippings.,Kennedy is free to harvest the cucumbers and is free to compost the clippings.,10678,Premise: Kennedy is free to harvest the cucumbers or compost the clippings. / Conclusion: Kennedy is free to harvest the cucumbers and is free to compost the clippings.,N,html-keyboard-response,55,2.1.0,327808,EXPERIMENTAL,661ec48c618b7a27e5a9077a,?,modal,allowed_and
Y,C16,control,conditional,,,,"Since Carla didn’t charge her phone, it died halfway through the call.",Carla failed to charge her phone.,6433,"Premise: Since Carla didn’t charge her phone, it died halfway through the call. / Conclusion: Carla failed to charge her phone.",B,html-keyboard-response,57,2.1.0,335246,EXPERIMENTAL,661ec48c618b7a27e5a9077a,Y,control,conditional
N,C10,control,conjunction,,,,Liam repaired the old radio and tested its signal range.,Liam travelled to the mountains.,5602,Premise: Liam repaired the old radio and tested its signal range. / Conclusion: Liam travelled to the mountains.,N,html-keyboard-response,59,2.1.0,341857,EXPERIMENTAL,661ec48c618b7a27e5a9077a,N,control,conjunction
N,C32,control,quantifier,,,,All toads have poison glands.,"If you find a true toad in your garden, it may not have poison glands.",8019,"Premise: All toads have poison glands. / Conclusion: If you find a true toad in your garden, it may not have poison glands.",N,html-keyboard-response,61,2.1.0,350886,EXPERIMENTAL,661ec48c618b7a27e5a9077a,N,control,quantifier
?,W44,want,atleast_single_b,B,,,Harper wants to prepare the snack table or at least arrange the seating.,Harper wants to arrange the seating.,8527,Premise: Harper wants to prepare the snack table or at least arrange the seating. / Conclusion: Harper wants to arrange the seating.,N,html-keyboard-response,63,2.1.0,360426,EXPERIMENTAL,661ec48c618b7a27e5a9077a,?,want,atleast_single_b
N,M19,modal,all_and,AND,,,All of them mounted the canvas or sanded the wooden edges.,"Some of them  mounted the canvas, and some of them sanded the wooden edges.",8980,"Premise: All of them mounted the canvas or sanded the wooden edges. / Conclusion: Some of them  mounted the canvas, and some of them sanded the wooden edges.",N,html-keyboard-response,65,2.1.0,370413,EXPERIMENTAL,661ec48c618b7a27e5a9077a,N,modal,all_and
?,M08,modal,must_and,AND,,,Eden should clean the air filter or replace the lightbulb.,"Eden may clean the air filter, and may replace the lightbulb.",10080,"Premise: Eden should clean the air filter or replace the lightbulb. / Conclusion: Eden may clean the air filter, and may replace the lightbulb.",N,html-keyboard-response,67,2.1.0,381544,EXPERIMENTAL,661ec48c618b7a27e5a9077a,?,modal,must_and
N,C46,control,presupposition,,,,Albert knows that geraniums prefer full sun.,Albert likes geraniums.,5486,Premise: Albert knows that geraniums prefer full sun. / Conclusion: Albert likes geraniums.,N,html-keyboard-response,69,2.1.0,388037,EXPERIMENTAL,661ec48c618b7a27e5a9077a,N,control,presupposition
?,W42,want,atleast_single_a,A,,,Emery wants to charge the power bank or at least set an early alarm.,Emery wants to charge the power bank.,8833,Premise: Emery wants to charge the power bank or at least set an early alarm. / Conclusion: Emery wants to charge the power bank.,N,html-keyboard-response,71,2.1.0,397870,EXPERIMENTAL,661ec48c618b7a27e5a9077a,?,want,atleast_single_a
?,W27,want,want_and,AND,,,Ari wants to outline the report or email the instructor questions.,Ari wants to outline the report and wants to email the instructor questions.,16180,Premise: Ari wants to outline the report or email the instructor questions. / Conclusion: Ari wants to outline the report and wants to email the instructor questions.,N,html-keyboard-response,73,2.1.0,415054,EXPERIMENTAL,661ec48c618b7a27e5a9077a,?,want,want_and
N,M20,modal,all_single,A,,,Everyone edited the raw photos or charged the camera batteries.,Some people edited the raw photos.,10786,Premise: Everyone edited the raw photos or charged the camera batteries. / Conclusion: Some people edited the raw photos.,B,html-keyboard-response,75,2.1.0,426847,EXPERIMENTAL,661ec48c618b7a27e5a9077a,N,modal,all_single
?,W46,want,atleast_single_b,B,,,Corey wants to record a demo or at least tune the guitar.,Corey wants to tune the guitar.,7680,Premise: Corey wants to record a demo or at least tune the guitar. / Conclusion: Corey wants to tune the guitar.,B,html-keyboard-response,77,2.1.0,435537,EXPERIMENTAL,661ec48c618b7a27e5a9077a,?,want,atleast_single_b
Y,C28,control,quantifier,,,,There exists a book that has been read by everyone.,Everyone read at least one book.,10543,Premise: There exists a book that has been read by everyone. / Conclusion: Everyone read at least one book.,B,html-keyboard-response,79,2.1.0,447091,EXPERIMENTAL,661ec48c618b7a27e5a9077a,Y,control,quantifier
N,C20,control,conditional,,,,"If the software updates successfully, the interface will change.",The layout will look different.,13501,"Premise: If the software updates successfully, the interface will change. / Conclusion: The layout will look different.",N,html-keyboard-response,81,2.1.0,461606,EXPERIMENTAL,661ec48c618b7a27e5a9077a,N,control,conditional
?,W26,want,want_and,AND,,,Shiloh wants to confirm the hotel reservation or download the maps.,Shiloh wants to confirm the hotel reservation and wants to download the maps.,7673,Premise: Shiloh wants to confirm the hotel reservation or download the maps. / Conclusion: Shiloh wants to confirm the hotel reservation and wants to download the maps.,N,html-keyboard-response,83,2.1.0,470283,EXPERIMENTAL,661ec48c618b7a27e5a9077a,?,want,want_and
N,C33,control,quantifier,,,,Every table is a piece of furniture.,"If you have only a table in your room, you don’t have any furniture.",7617,"Premise: Every table is a piece of furniture. / Conclusion: If you have only a table in your room, you don’t have any furniture.",N,html-keyboard-response,85,2.1.0,478903,EXPERIMENTAL,661ec48c618b7a27e5a9077a,N,control,quantifier
?,W38,want,want_mind_single,A,,,Casey wants to rehearse the presentation or edit the slide deck.,Casey would be okay with rehearsing the presentation.,11519,Premise: Casey wants to rehearse the presentation or edit the slide deck. / Conclusion: Casey would be okay with rehearsing the presentation.,B,html-keyboard-response,87,2.1.0,491425,EXPERIMENTAL,661ec48c618b7a27e5a9077a,?,want,want_mind_single
Y,C25,control,quantifier,,,,Some cars have all-wheel drive.,Some all-wheel-drive vehicles are cars.,9566,Premise: Some cars have all-wheel drive. / Conclusion: Some all-wheel-drive vehicles are cars.,B,html-keyboard-response,89,2.1.0,501999,EXPERIMENTAL,661ec48c618b7a27e5a9077a,Y,control,quantifier
Y,C26,control,quantifier,,,,All toads have poison glands.,"If you find a true toad in your garden, it will have poison glands.",4740,"Premise: All toads have poison glands. / Conclusion: If you find a true toad in your garden, it will have poison glands.",B,html-keyboard-response,91,2.1.0,507743,EXPERIMENTAL,661ec48c618b7a27e5a9077a,Y,control,quantifier
N,C09,control,conjunction,,,,The train passed through the village and slowed near the small station.,The train ended its route in the village.,10977,Premise: The train passed through the village and slowed near the small station. / Conclusion: The train ended its route in the village.,N,html-keyboard-response,93,2.1.0,519727,EXPERIMENTAL,661ec48c618b7a27e5a9077a,N,control,conjunction
?,W25,want,want_and,AND,,,Kai wants to mix the audio tracks or practice the chorus.,Kai wants to mix the audio tracks and wants to practice the chorus.,10746,Premise: Kai wants to mix the audio tracks or practice the chorus. / Conclusion: Kai wants to mix the audio tracks and wants to practice the chorus.,N,html-keyboard-response,95,2.1.0,531482,EXPERIMENTAL,661ec48c618b7a27e5a9077a,?,want,want_and
N,C31,control,quantifier,,,,Some cars have all-wheel drive.,Some cars have dual exhaust.,4739,Premise: Some cars have all-wheel drive. / Conclusion: Some cars have dual exhaust.,N,html-keyboard-response,97,2.1.0,537230,EXPERIMENTAL,661ec48c618b7a27e5a9077a,N,control,quantifier
?,W36,want,want_mind_single,A,,,Marley wants to refill the water bottles or set up the yoga mats.,Marley does not mind refilling the water bottles.,8507,Premise: Marley wants to refill the water bottles or set up the yoga mats. / Conclusion: Marley does not mind refilling the water bottles.,B,html-keyboard-response,99,2.1.0,546748,EXPERIMENTAL,661ec48c618b7a27e5a9077a,?,want,want_mind_single
N,C23,control,conditional,,,,"If the door sensor malfunctions, the lights will stay on overnight.",The lights will turn off early in the evening.,7646,"Premise: If the door sensor malfunctions, the lights will stay on overnight. / Conclusion: The lights will turn off early in the evening.",N,html-keyboard-response,101,2.1.0,555404,EXPERIMENTAL,661ec48c618b7a27e5a9077a,N,control,conditional
?,W43,want,atleast_single_a,A,,,Finley wants to clean the watering cans or at least pull the weeds.,Finley wants to clean the watering cans.,10042,Premise: Finley wants to clean the watering cans or at least pull the weeds. / Conclusion: Finley wants to clean the watering cans.,B,html-keyboard-response,103,2.1.0,566460,EXPERIMENTAL,661ec48c618b7a27e5a9077a,?,want,atleast_single_a
N,M18,modal,all_and,AND,,,Each person sketched the layout or photographed the finished piece.,"At least one person sketched the layout, and at least one  photographed the finished piece.",12227,"Premise: Each person sketched the layout or photographed the finished piece. / Conclusion: At least one person sketched the layout, and at least one  photographed the finished piece.",B,html-keyboard-response,105,2.1.0,579691,EXPERIMENTAL,661ec48c618b7a27e5a9077a,N,modal,all_and
?,W41,want,atleast_single_a,A,,,Dakota wants to cue the playlist or at least label the name tags.,Dakota wants to cue the playlist.,12464,Premise: Dakota wants to cue the playlist or at least label the name tags. / Conclusion: Dakota wants to cue the playlist.,B,html-keyboard-response,107,2.1.0,593167,EXPERIMENTAL,661ec48c618b7a27e5a9077a,?,want,atleast_single_a
?,W37,want,want_mind_single,B,,,Rowan wants to format the bibliography or read the article summary.,Rowan is fine with reading the article summary.,13240,Premise: Rowan wants to format the bibliography or read the article summary. / Conclusion: Rowan is fine with reading the article summary.,B,html-keyboard-response,109,2.1.0,607410,EXPERIMENTAL,661ec48c618b7a27e5a9077a,?,want,want_mind_single
Y,C00,control,conjunction,,,,Emma walked to the lake and fed the ducks.,Emma gave food to the ducks.,6008,Premise: Emma walked to the lake and fed the ducks. / Conclusion: Emma gave food to the ducks.,B,html-keyboard-response,111,2.1.0,614427,EXPERIMENTAL,661ec48c618b7a27e5a9077a,Y,control,conjunction
?,W31,want,want_single,B,,,Taylor wants to pack the leftovers or simmer the sauce.,Taylor wants to simmer the sauce.,9900,Premise: Taylor wants to pack the leftovers or simmer the sauce. / Conclusion: Taylor wants to simmer the sauce.,N,html-keyboard-response,113,2.1.0,625331,EXPERIMENTAL,661ec48c618b7a27e5a9077a,?,want,want_single
N,C43,control,presupposition,,,,Sue visited her brother.,Sue has no siblings.,4921,Premise: Sue visited her brother. / Conclusion: Sue has no siblings.,N,html-keyboard-response,115,2.1.0,631266,EXPERIMENTAL,661ec48c618b7a27e5a9077a,N,control,presupposition
?,M10,modal,must_and,AND,,,Riley is expected to boil the pasta or chop the vegetables.,Riley is free to boil the pasta and is free to chop the vegetables.,12691,Premise: Riley is expected to boil the pasta or chop the vegetables. / Conclusion: Riley is free to boil the pasta and is free to chop the vegetables.,N,html-keyboard-response,117,2.1.0,644970,EXPERIMENTAL,661ec48c618b7a27e5a9077a,?,modal,must_and
N,C11,control,conjunction,,,,Olivia watered the houseplants and trimmed the yellow leaves.,Olivia met her colleagues for a late meeting.,8164,Premise: Olivia watered the houseplants and trimmed the yellow leaves. / Conclusion: Olivia met her colleagues for a late meeting.,N,html-keyboard-response,119,2.1.0,654139,EXPERIMENTAL,661ec48c618b7a27e5a9077a,N,control,conjunction
Y,C03,control,conjunction,,,,The cyclist crossed the old bridge and took a break by the river.,The cyclist rested near the water.,8463,Premise: The cyclist crossed the old bridge and took a break by the river. / Conclusion: The cyclist rested near the water.,B,html-keyboard-response,121,2.1.0,663613,EXPERIMENTAL,661ec48c618b7a27e5a9077a,Y,control,conjunction
?,M13,modal,must_single,B,,,Logan is supposed to clean the exercise gear or time the sprint intervals.,Logan is allowed to time the sprint intervals.,17878,Premise: Logan is supposed to clean the exercise gear or time the sprint intervals. / Conclusion: Logan is allowed to time the sprint intervals.,N,html-keyboard-response,124,2.1.0,701186,EXPERIMENTAL,661ec48c618b7a27e5a9077a,?,modal,must_single
N,C42,control,presupposition,,,,Anne quit smoking last year.,Anne never smoked in the past.,5376,Premise: Anne quit smoking last year. / Conclusion: Anne never smoked in the past.,N,html-keyboard-response,126,2.1.0,707565,EXPERIMENTAL,661ec48c618b7a27e5a9077a,N,control,presupposition
Y,C37,control,presupposition,,,,Mary visited her brother.,Mary has siblings.,3403,Premise: Mary visited her brother. / Conclusion: Mary has siblings.,B,html-keyboard-response,128,2.1.0,712035,EXPERIMENTAL,661ec48c618b7a27e5a9077a,Y,control,presupposition
?,M12,modal,must_single,A,,,Tegan should sew the fabric border or glue the pieces.,Tegan may sew the fabric border.,10913,Premise: Tegan should sew the fabric border or glue the pieces. / Conclusion: Tegan may sew the fabric border.,N,html-keyboard-response,130,2.1.0,723964,EXPERIMENTAL,661ec48c618b7a27e5a9077a,?,modal,must_single
N,M17,modal,all_and,AND,,,Every participant tested the smoke detector or organized the tool box.,"At least one participant tested the smoke detector, and at least one participant organized the tool box.",9665,"Premise: Every participant tested the smoke detector or organized the tool box. / Conclusion: At least one participant tested the smoke detector, and at least one participant organized the tool box.",B,html-keyboard-response,132,2.1.0,734642,EXPERIMENTAL,661ec48c618b7a27e5a9077a,N,modal,all_and
N,C19,control,conditional,,,,"If Adam visits the new exhibition, he will take some photos.",Adam will go to see the new display.,10580,"Premise: If Adam visits the new exhibition, he will take some photos. / Conclusion: Adam will go to see the new display.",N,html-keyboard-response,134,2.1.0,746260,EXPERIMENTAL,661ec48c618b7a27e5a9077a,N,control,conditional
N,C44,control,presupposition,,,,Andrew talked to his daughter.,Andrew has two daughters.,4880,Premise: Andrew talked to his daughter. / Conclusion: Andrew has two daughters.,N,html-keyboard-response,136,2.1.0,752151,EXPERIMENTAL,661ec48c618b7a27e5a9077a,N,control,presupposition
?,W30,want,want_single,A,,,Frankie wants to marinate the tofu or set the table.,Frankie wants to marinate the tofu.,7292,Premise: Frankie wants to marinate the tofu or set the table. / Conclusion: Frankie wants to marinate the tofu.,N,html-keyboard-response,138,2.1.0,760446,EXPERIMENTAL,661ec48c618b7a27e5a9077a,?,want,want_single
N,M16,modal,all_and,AND,,,Everyone learned the bridge section or warmed up the scales.,"Some people learned the bridge section, and some people warmed up the scales.",15468,"Premise: Everyone learned the bridge section or warmed up the scales. / Conclusion: Some people learned the bridge section, and some people warmed up the scales.",B,html-keyboard-response,140,2.1.0,776927,EXPERIMENTAL,661ec48c618b7a27e5a9077a,N,modal,all_and
?,M03,modal,allowed_and,AND,,,Drew is cleared to repair the loose hinge or sweep the front porch.,Drew is cleared to repair the loose hinge and cleared to sweep the front porch.,20665,Premise: Drew is cleared to repair the loose hinge or sweep the front porch. / Conclusion: Drew is cleared to repair the loose hinge and cleared to sweep the front porch.,B,html-keyboard-response,142,2.1.0,798608,EXPERIMENTAL,661ec48c618b7a27e5a9077a,?,modal,allowed_and
Y,C41,control,presupposition,,,,"Maggie spent holidays in Paris, again.",Maggie had already visited Paris before.,5329,"Premise: Maggie spent holidays in Paris, again. / Conclusion: Maggie had already visited Paris before.",B,html-keyboard-response,144,2.1.0,804945,EXPERIMENTAL,661ec48c618b7a27e5a9077a,Y,control,presupposition
Y,C12,control,conditional,,,,"Since the engine overheated, the car stopped on the roadside.",The engine became too hot.,6451,"Premise: Since the engine overheated, the car stopped on the roadside. / Conclusion: The engine became too hot.",B,html-keyboard-response,146,2.1.0,812397,EXPERIMENTAL,661ec48c618b7a27e5a9077a,Y,control,conditional
Y,C38,control,presupposition,,,,Emma talked to her son.,Emma has children.,10248,Premise: Emma talked to her son. / Conclusion: Emma has children.,N,html-keyboard-response,148,2.1.0,823662,EXPERIMENTAL,661ec48c618b7a27e5a9077a,Y,control,presupposition
Y,C15,control,conditional,,,,"Since Daniel overslept, he arrived at the meeting much later than planned.",Daniel got up later than he intended.,7281,"Premise: Since Daniel overslept, he arrived at the meeting much later than planned. / Conclusion: Daniel got up later than he intended.",B,html-keyboard-response,150,2.1.0,831956,EXPERIMENTAL,661ec48c618b7a27e5a9077a,Y,control,conditional
?,W35,want,want_mind_and,AND,,,Bailey wants to plant the herb seeds or mulch the garden bed.,Bailey has no objection to planting the herb seeds and has no objection to mulching the garden bed.,17512,Premise: Bailey wants to plant the herb seeds or mulch the garden bed. / Conclusion: Bailey has no objection to planting the herb seeds and has no objection to mulching the garden bed.,N,html-keyboard-response,152,2.1.0,850483,EXPERIMENTAL,661ec48c618b7a27e5a9077a,?,want,want_mind_and
N,C08,control,conjunction,,,,The delivery truck stopped at the warehouse and unloaded several crates.,The delivery truck stopped at the supermarket.,6837,Premise: The delivery truck stopped at the warehouse and unloaded several crates. / Conclusion: The delivery truck stopped at the supermarket.,N,html-keyboard-response,154,2.1.0,858330,EXPERIMENTAL,661ec48c618b7a27e5a9077a,N,control,conjunction
N,C21,control,conditional,,,,"If the package arrives tomorrow, the office will process it immediately.",The parcel will be handled in a week time.,7915,"Premise: If the package arrives tomorrow, the office will process it immediately. / Conclusion: The parcel will be handled in a week time.",N,html-keyboard-response,156,2.1.0,867257,EXPERIMENTAL,661ec48c618b7a27e5a9077a,N,control,conditional
N,C07,control,conjunction,,,,Daniel organized the bookshelf and donated a stack of novels.,Daniel had lunch at a sushi bar.,6339,Premise: Daniel organized the bookshelf and donated a stack of novels. / Conclusion: Daniel had lunch at a sushi bar.,N,html-keyboard-response,158,2.1.0,874603,EXPERIMENTAL,661ec48c618b7a27e5a9077a,N,control,conjunction
N,C35,control,quantifier,,,,Everybody has an idol.,There is a person who is an idol for everyone.,6129,Premise: Everybody has an idol. / Conclusion: There is a person who is an idol for everyone.,N,html-keyboard-response,160,2.1.0,881743,EXPERIMENTAL,661ec48c618b7a27e5a9077a,N,control,quantifier
Y,C04,control,conjunction,,,,The student opened the window and aired out the room.,The student let fresh air inside.,5878,Premise: The student opened the window and aired out the room. / Conclusion: The student let fresh air inside.,B,html-keyboard-response,162,2.1.0,888632,EXPERIMENTAL,661ec48c618b7a27e5a9077a,Y,control,conjunction
N,M23,modal,all_single,B,,,All of them scouted the shooting location or packed the lens kit.,Some of them packed the lens kit.,10746,Premise: All of them scouted the shooting location or packed the lens kit. / Conclusion: Some of them packed the lens kit.,B,html-keyboard-response,164,2.1.0,900389,EXPERIMENTAL,661ec48c618b7a27e5a9077a,N,modal,all_single
?,W34,want,want_mind_and,AND,,,Kelly wants to stretch the hamstrings or pack the first-aid kit.,Kelly would be okay with stretching the hamstrings and would be okay with packing the first-aid kit.,9878,Premise: Kelly wants to stretch the hamstrings or pack the first-aid kit. / Conclusion: Kelly would be okay with stretching the hamstrings and would be okay with packing the first-aid kit.,N,html-keyboard-response,166,2.1.0,911276,EXPERIMENTAL,661ec48c618b7a27e5a9077a,?,want,want_mind_and
Y,C17,control,conditional,,,,"Since the electricity went out, the laboratory instruments shut down.",The building lost electrical power.,14284,"Premise: Since the electricity went out, the laboratory instruments shut down. / Conclusion: The building lost electrical power.",B,html-keyboard-response,168,2.1.0,926573,EXPERIMENTAL,661ec48c618b7a27e5a9077a,Y,control,conditional
N,C18,control,conditional,,,,"If the printer jams this morning, the reports will be delayed.",The device will power off on its own.,8759,"Premise: If the printer jams this morning, the reports will be delayed. / Conclusion: The device will power off on its own.",N,html-keyboard-response,170,2.1.0,936340,EXPERIMENTAL,661ec48c618b7a27e5a9077a,N,control,conditional
?,W32,want,want_mind_and,AND,,,Elliot wants to check the bike tires or cool down after practice.,"Elliot does not mind checking the bike tires, and does not mind cooling down after practice.",8332,"Premise: Elliot wants to check the bike tires or cool down after practice. / Conclusion: Elliot does not mind checking the bike tires, and does not mind cooling down after practice.",N,html-keyboard-response,172,2.1.0,945676,EXPERIMENTAL,661ec48c618b7a27e5a9077a,?,want,want_mind_and
?,W28,want,want_single,A,,,Alex wants to set up the tripod or test the shutter remote.,Alex wants to set up the tripod.,7543,Premise: Alex wants to set up the tripod or test the shutter remote. / Conclusion: Alex wants to set up the tripod.,N,html-keyboard-response,174,2.1.0,954228,EXPERIMENTAL,661ec48c618b7a27e5a9077a,?,want,want_single
Y,C29,control,quantifier,,,,There is a person who is an idol for everyone.,Everybody has an idol.,4614,Premise: There is a person who is an idol for everyone. / Conclusion: Everybody has an idol.,N,html-keyboard-response,176,2.1.0,959859,EXPERIMENTAL,661ec48c618b7a27e5a9077a,Y,control,quantifier
?,M07,modal,allowed_single,B,,,Sage is cleared to paint the background or cut the stencil.,Sage is cleared to cut the stencil.,11379,Premise: Sage is cleared to paint the background or cut the stencil. / Conclusion: Sage is cleared to cut the stencil.,N,html-keyboard-response,178,2.1.0,972254,EXPERIMENTAL,661ec48c618b7a27e5a9077a,?,modal,allowed_single
Y,C13,control,conditional,,,,"Since Maria forgot her umbrella, she got soaked on her way home.",Maria didn’t take an umbrella with her.,8216,"Premise: Since Maria forgot her umbrella, she got soaked on her way home. / Conclusion: Maria didn’t take an umbrella with her.",B,html-keyboard-response,180,2.1.0,981476,EXPERIMENTAL,661ec48c618b7a27e5a9077a,Y,control,conditional
Y,C24,control,quantifier,,,,Some birds have long legs.,Some creatures with long legs are birds.,5534,Premise: Some birds have long legs. / Conclusion: Some creatures with long legs are birds.,B,html-keyboard-response,182,2.1.0,988019,EXPERIMENTAL,661ec48c618b7a27e5a9077a,Y,control,quantifier
N,M21,modal,all_single,B,,,Every participant restrung the instrument or polished the lyrics.,At least one participant polished the lyrics.,7536,Premise: Every participant restrung the instrument or polished the lyrics. / Conclusion: At least one participant polished the lyrics.,B,html-keyboard-response,184,2.1.0,996565,EXPERIMENTAL,661ec48c618b7a27e5a9077a,N,modal,all_single
Y,C40,control,presupposition,,,,Ruth knows that roses require a lot of water.,Roses need a lot of water.,6495,Premise: Ruth knows that roses require a lot of water. / Conclusion: Roses need a lot of water.,B,html-keyboard-response,186,2.1.0,1004065,EXPERIMENTAL,661ec48c618b7a27e5a9077a,Y,control,presupposition
Y,C01,control,conjunction,,,,Oliver called his brother and apologized for the argument.,Oliver said he was sorry.,4773,Premise: Oliver called his brother and apologized for the argument. / Conclusion: Oliver said he was sorry.,B,html-keyboard-response,188,2.1.0,1009845,EXPERIMENTAL,661ec48c618b7a27e5a9077a,Y,control,conjunction
?,M00,modal,allowed_and,AND,,,Morgan is allowed to garnish the plates or bake the rolls.,Morgan is allowed to garnish the plates and is allowed to bake the rolls.,7763,Premise: Morgan is allowed to garnish the plates or bake the rolls. / Conclusion: Morgan is allowed to garnish the plates and is allowed to bake the rolls.,N,html-keyboard-response,190,2.1.0,1018613,EXPERIMENTAL,661ec48c618b7a27e5a9077a,?,modal,allowed_and
N,C22,control,conditional,,,,"If the lamp stops working, we will replace the bulb.",The bulb will be changed.,6141,"Premise: If the lamp stops working, we will replace the bulb. / Conclusion: The bulb will be changed.",B,html-keyboard-response,192,2.1.0,1025770,EXPERIMENTAL,661ec48c618b7a27e5a9077a,N,control,conditional
Y,C39,control,presupposition,,,,Anne realized that the tire was flat.,The tire was flat.,4506,Premise: Anne realized that the tire was flat. / Conclusion: The tire was flat.,B,html-keyboard-response,194,2.1.0,1031282,EXPERIMENTAL,661ec48c618b7a27e5a9077a,Y,control,presupposition
?,M01,modal,allowed_and,AND,,,Kendall has permission to print the travel itinerary or to check the boarding times.,Kendall has permission to print the travel itinerary and has permission to check the boarding times.,9730,Premise: Kendall has permission to print the travel itinerary or to check the boarding times. / Conclusion: Kendall has permission to print the travel itinerary and has permission to check the boarding times.,N,html-keyboard-response,196,2.1.0,1042027,EXPERIMENTAL,661ec48c618b7a27e5a9077a,?,modal,allowed_and
?,W29,want,want_single,B,,,Jamie wants to draft the introduction or annotate the source text.,Jamie wants to annotate the source text.,7682,Premise: Jamie wants to draft the introduction or annotate the source text. / Conclusion: Jamie wants to annotate the source text.,N,html-keyboard-response,198,2.1.0,1050712,EXPERIMENTAL,661ec48c618b7a27e5a9077a,?,want,want_single
N,M22,modal,all_single,A,,,Each person greeted the guests or set up the projector.,At least one person greeted the guests.,6262,Premise: Each person greeted the guests or set up the projector. / Conclusion: At least one person greeted the guests.,B,html-keyboard-response,200,2.1.0,1057988,EXPERIMENTAL,661ec48c618b7a27e5a9077a,N,modal,all_single
N,C45,control,presupposition,,,,Jim realized that the window was broken.,Jim realized that there were two windows.,8449,Premise: Jim realized that the window was broken. / Conclusion: Jim realized that there were two windows.,N,html-keyboard-response,202,2.1.0,1067441,EXPERIMENTAL,661ec48c618b7a27e5a9077a,N,control,presupposition
Y,C05,control,conjunction,,,,The drone circled over the field and recorded the migrating birds.,The drone captured footage of the migrating birds.,7261,Premise: The drone circled over the field and recorded the migrating birds. / Conclusion: The drone captured footage of the migrating birds.,B,html-keyboard-response,204,2.1.0,1075716,EXPERIMENTAL,661ec48c618b7a27e5a9077a,Y,control,conjunction
?,W45,want,atleast_single_b,B,,,Avery wants to schedule a rehearsal or at least adjust the metronome.,Avery wants to adjust the metronome.,9078,Premise: Avery wants to schedule a rehearsal or at least adjust the metronome. / Conclusion: Avery wants to adjust the metronome.,N,html-keyboard-response,206,2.1.0,1085803,EXPERIMENTAL,661ec48c618b7a27e5a9077a,?,want,atleast_single_b
Y,C36,control,presupposition,,,,John quit smoking last year.,John used to smoke in the past.,3268,Premise: John quit smoking last year. / Conclusion: John used to smoke in the past.,B,html-keyboard-response,208,2.1.0,1090086,EXPERIMENTAL,661ec48c618b7a27e5a9077a,Y,control,presupposition
?,M05,modal,allowed_single,B,,,Devin has permission to photograph the sculpture garden or to adjust the white balance.,Devin has permission to adjust the white balance.,7672,Premise: Devin has permission to photograph the sculpture garden or to adjust the white balance. / Conclusion: Devin has permission to adjust the white balance.,N,html-keyboard-response,210,2.1.0,1098773,EXPERIMENTAL,661ec48c618b7a27e5a9077a,?,modal,allowed_single
N,C30,control,quantifier,,,,Some birds have long legs.,Some birds have long beaks.,10657,Premise: Some birds have long legs. / Conclusion: Some birds have long beaks.,N,html-keyboard-response,212,2.1.0,1110443,EXPERIMENTAL,661ec48c618b7a27e5a9077a,N,control,quantifier
Y,C14,control,conditional,,,,"Since the window remained open all night, the room became unusually cold.",The room’s temperature dropped significantly.,6856,"Premise: Since the window remained open all night, the room became unusually cold. / Conclusion: The room’s temperature dropped significantly.",B,html-keyboard-response,214,2.1.0,1118310,EXPERIMENTAL,661ec48c618b7a27e5a9077a,Y,control,conditional
?,M04,modal,allowed_single,A,,,Jules is allowed to dim the room lights or collect the RSVPs.,Jules is allowed to dim the room lights.,7540,Premise: Jules is allowed to dim the room lights or collect the RSVPs. / Conclusion: Jules is allowed to dim the room lights.,N,html-keyboard-response,216,2.1.0,1126853,EXPERIMENTAL,661ec48c618b7a27e5a9077a,?,modal,allowed_single
Y,C02,control,conjunction,,,,Jacob opened the window and let in some fresh air.,Jacob allowed fresh air to enter the room.,6771,Premise: Jacob opened the window and let in some fresh air. / Conclusion: Jacob allowed fresh air to enter the room.,B,html-keyboard-response,218,2.1.0,1134636,EXPERIMENTAL,661ec48c618b7a27e5a9077a,Y,control,conjunction
N,P05,control,quantifier,,,0.0,Some blondes have dark eyes.,Some blondes have dark clothes.,4606,Premise: Some blondes have dark eyes. / Conclusion: Some blondes have dark clothes.,n,html-keyboard-response,2,2.1.0,34023,PRACTICE,5de3d4fc1d61c93cd498bb92,N,control,quantifier
Y,P04,control,quantifier,,,0.0,Some blondes have dark eyes.,Some people with dark eyes are blondes.,3349,Premise: Some blondes have dark eyes. / Conclusion: Some people with dark eyes are blondes.,b,html-keyboard-response,5,2.1.0,42279,PRACTICE,5de3d4fc1d61c93cd498bb92,Y,control,quantifier
Y,P00,control,conjunction,,,0.0,Sophia stopped by the bakery and bought fresh bread.,Sophia went to the bakery.,3545,Premise: Sophia stopped by the bakery and bought fresh bread. / Conclusion: Sophia went to the bakery.,b,html-keyboard-response,8,2.1.0,48815,PRACTICE,5de3d4fc1d61c93cd498bb92,Y,control,conjunction
N,P01,control,conjunction,,,0.0,The tourist visited the castle and photographed the courtyard.,The tourist visited the cathedral.,5621,Premise: The tourist visited the castle and photographed the courtyard. / Conclusion: The tourist visited the cathedral.,n,html-keyboard-response,11,2.1.0,56655,PRACTICE,5de3d4fc1d61c93cd498bb92,N,control,conjunction
N,P03,control,conditional,,,0.0,"If Laura finishes preparing the detailed report today, she will send it to the entire team.",Laura will send the report to the team.,6967,"Premise: If Laura finishes preparing the detailed report today, she will send it to the entire team. / Conclusion: Laura will send the report to the team.",b,html-keyboard-response,14,2.1.0,67327,PRACTICE,5de3d4fc1d61c93cd498bb92,N,control,conditional
Y,P02,control,conditional,,,0.0,"Since heavy fog covered the valley, the hikers lost visibility.",The hikers could no longer see their surroundings clearly.,5332,"Premise: Since heavy fog covered the valley, the hikers lost visibility. / Conclusion: The hikers could no longer see their surroundings clearly.",b,html-keyboard-response,17,2.1.0,76383,PRACTICE,5de3d4fc1d61c93cd498bb92,Y,control,conditional
N,P07,control,presupposition,,,0.0,Mark won a car race.,Mark has never participated in a car race.,2947,Premise: Mark won a car race. / Conclusion: Mark has never participated in a car race.,n,html-keyboard-response,20,2.1.0,81807,PRACTICE,5de3d4fc1d61c93cd498bb92,N,control,presupposition
Y,P06,control,presupposition,,,0.0,Alice won a car race.,Alice participated in a car race.,2336,Premise: Alice won a car race. / Conclusion: Alice participated in a car race.,b,html-keyboard-response,23,2.1.0,86582,PRACTICE,5de3d4fc1d61c93cd498bb92,Y,control,presupposition
Y,C29,control,quantifier,,,,There is a person who is an idol for everyone.,Everybody has an idol.,6103,Premise: There is a person who is an idol for everyone. / Conclusion: Everybody has an idol.,b,html-keyboard-response,27,2.1.0,98214,EXPERIMENTAL,5de3d4fc1d61c93cd498bb92,Y,control,quantifier
?,M09,modal,must_and,AND,,,Blair is supposed to frame the illustration or varnish the surface.,Blair is allowed to frame the illustration and is allowed to varnish the surface.,6057,Premise: Blair is supposed to frame the illustration or varnish the surface. / Conclusion: Blair is allowed to frame the illustration and is allowed to varnish the surface.,b,html-keyboard-response,29,2.1.0,105287,EXPERIMENTAL,5de3d4fc1d61c93cd498bb92,?,modal,must_and
Y,C14,control,conditional,,,,"Since the window remained open all night, the room became unusually cold.",The room’s temperature dropped significantly.,5480,"Premise: Since the window remained open all night, the room became unusually cold. / Conclusion: The room’s temperature dropped significantly.",b,html-keyboard-response,31,2.1.0,111774,EXPERIMENTAL,5de3d4fc1d61c93cd498bb92,Y,control,conditional
?,M14,modal,must_single,A,,,Dylan is expected to print the handouts or review the survey data.,Dylan is allowed to  print the handouts.,5787,Premise: Dylan is expected to print the handouts or review the survey data. / Conclusion: Dylan is allowed to  print the handouts.,b,html-keyboard-response,33,2.1.0,118567,EXPERIMENTAL,5de3d4fc1d61c93cd498bb92,?,modal,must_single
N,M22,modal,all_single,A,,,Each person greeted the guests or set up the projector.,At least one person greeted the guests.,5610,Premise: Each person greeted the guests or set up the projector. / Conclusion: At least one person greeted the guests.,b,html-keyboard-response,35,2.1.0,125190,EXPERIMENTAL,5de3d4fc1d61c93cd498bb92,N,modal,all_single
N,M18,modal,all_and,AND,,,Each person sketched the layout or photographed the finished piece.,"At least one person sketched the layout, and at least one  photographed the finished piece.",7179,"Premise: Each person sketched the layout or photographed the finished piece. / Conclusion: At least one person sketched the layout, and at least one  photographed the finished piece.",b,html-keyboard-response,37,2.1.0,133375,EXPERIMENTAL,5de3d4fc1d61c93cd498bb92,N,modal,all_and
?,M15,modal,must_single,B,,,Reese is required to patch the wall crack or tighten the cabinet screws.,Reese is free to tighten the cabinet screws.,8530,Premise: Reese is required to patch the wall crack or tighten the cabinet screws. / Conclusion: Reese is free to tighten the cabinet screws.,b,html-keyboard-response,39,2.1.0,142910,EXPERIMENTAL,5de3d4fc1d61c93cd498bb92,?,modal,must_single
?,W25,want,want_and,AND,,,Kai wants to mix the audio tracks or practice the chorus.,Kai wants to mix the audio tracks and wants to practice the chorus.,14349,Premise: Kai wants to mix the audio tracks or practice the chorus. / Conclusion: Kai wants to mix the audio tracks and wants to practice the chorus.,n,html-keyboard-response,41,2.1.0,158262,EXPERIMENTAL,5de3d4fc1d61c93cd498bb92,?,want,want_and
Y,C27,control,quantifier,,,,Every table is a piece of furniture.,"If you have a table in your room, you have a piece of furniture.",5198,"Premise: Every table is a piece of furniture. / Conclusion: If you have a table in your room, you have a piece of furniture.",b,html-keyboard-response,43,2.1.0,164462,EXPERIMENTAL,5de3d4fc1d61c93cd498bb92,Y,control,quantifier
?,W39,want,want_mind_single,B,,,Remy wants to jog the trail loop or map the running route.,Remy has no objection to mapping the running route.,7758,Premise: Remy wants to jog the trail loop or map the running route. / Conclusion: Remy has no objection to mapping the running route.,b,html-keyboard-response,45,2.1.0,173222,EXPERIMENTAL,5de3d4fc1d61c93cd498bb92,?,want,want_mind_single
Y,C13,control,conditional,,,,"Since Maria forgot her umbrella, she got soaked on her way home.",Maria didn’t take an umbrella with her.,6130,"Premise: Since Maria forgot her umbrella, she got soaked on her way home. / Conclusion: Maria didn’t take an umbrella with her.",b,html-keyboard-response,47,2.1.0,180358,EXPERIMENTAL,5de3d4fc1d61c93cd498bb92,Y,control,conditional
Y,C17,control,conditional,,,,"Since the electricity went out, the laboratory instruments shut down.",The building lost electrical power.,8805,"Premise: Since the electricity went out, the laboratory instruments shut down. / Conclusion: The building lost electrical power.",b,html-keyboard-response,49,2.1.0,190166,EXPERIMENTAL,5de3d4fc1d61c93cd498bb92,Y,control,conditional
?,M02,modal,allowed_and,AND,,,Kennedy is free to harvest the cucumbers or compost the clippings.,Kennedy is free to harvest the cucumbers and is free to compost the clippings.,7140,Premise: Kennedy is free to harvest the cucumbers or compost the clippings. / Conclusion: Kennedy is free to harvest the cucumbers and is free to compost the clippings.,b,html-keyboard-response,51,2.1.0,198318,EXPERIMENTAL,5de3d4fc1d61c93cd498bb92,?,modal,allowed_and
?,M08,modal,must_and,AND,,,Eden should clean the air filter or replace the lightbulb.,"Eden may clean the air filter, and may replace the lightbulb.",13278,"Premise: Eden should clean the air filter or replace the lightbulb. / Conclusion: Eden may clean the air filter, and may replace the lightbulb.",b,html-keyboard-response,53,2.1.0,212606,EXPERIMENTAL,5de3d4fc1d61c93cd498bb92,?,modal,must_and
Y,C01,control,conjunction,,,,Oliver called his brother and apologized for the argument.,Oliver said he was sorry.,3639,Premise: Oliver called his brother and apologized for the argument. / Conclusion: Oliver said he was sorry.,b,html-keyboard-response,55,2.1.0,217253,EXPERIMENTAL,5de3d4fc1d61c93cd498bb92,Y,control,conjunction
?,W28,want,want_single,A,,,Alex wants to set up the tripod or test the shutter remote.,Alex wants to set up the tripod.,8110,Premise: Alex wants to set up the tripod or test the shutter remote. / Conclusion: Alex wants to set up the tripod.,b,html-keyboard-response,57,2.1.0,226374,EXPERIMENTAL,5de3d4fc1d61c93cd498bb92,?,want,want_single
Y,C24,control,quantifier,,,,Some birds have long legs.,Some creatures with long legs are birds.,5553,Premise: Some birds have long legs. / Conclusion: Some creatures with long legs are birds.,b,html-keyboard-response,59,2.1.0,232934,EXPERIMENTAL,5de3d4fc1d61c93cd498bb92,Y,control,quantifier
?,M10,modal,must_and,AND,,,Riley is expected to boil the pasta or chop the vegetables.,Riley is free to boil the pasta and is free to chop the vegetables.,22812,Premise: Riley is expected to boil the pasta or chop the vegetables. / Conclusion: Riley is free to boil the pasta and is free to chop the vegetables.,n,html-keyboard-response,61,2.1.0,256757,EXPERIMENTAL,5de3d4fc1d61c93cd498bb92,?,modal,must_and
?,W41,want,atleast_single_a,A,,,Dakota wants to cue the playlist or at least label the name tags.,Dakota wants to cue the playlist.,6825,Premise: Dakota wants to cue the playlist or at least label the name tags. / Conclusion: Dakota wants to cue the playlist.,b,html-keyboard-response,63,2.1.0,264589,EXPERIMENTAL,5de3d4fc1d61c93cd498bb92,?,want,atleast_single_a
N,C19,control,conditional,,,,"If Adam visits the new exhibition, he will take some photos.",Adam will go to see the new display.,8260,"Premise: If Adam visits the new exhibition, he will take some photos. / Conclusion: Adam will go to see the new display.",n,html-keyboard-response,65,2.1.0,273853,EXPERIMENTAL,5de3d4fc1d61c93cd498bb92,N,control,conditional
N,C32,control,quantifier,,,,All toads have poison glands.,"If you find a true toad in your garden, it may not have poison glands.",6044,"Premise: All toads have poison glands. / Conclusion: If you find a true toad in your garden, it may not have poison glands.",n,html-keyboard-response,67,2.1.0,280909,EXPERIMENTAL,5de3d4fc1d61c93cd498bb92,N,control,quantifier
N,C10,control,conjunction,,,,Liam repaired the old radio and tested its signal range.,Liam travelled to the mountains.,3794,Premise: Liam repaired the old radio and tested its signal range. / Conclusion: Liam travelled to the mountains.,n,html-keyboard-response,69,2.1.0,285709,EXPERIMENTAL,5de3d4fc1d61c93cd498bb92,N,control,conjunction
N,C07,control,conjunction,,,,Daniel organized the bookshelf and donated a stack of novels.,Daniel had lunch at a sushi bar.,5122,Premise: Daniel organized the bookshelf and donated a stack of novels. / Conclusion: Daniel had lunch at a sushi bar.,n,html-keyboard-response,71,2.1.0,291837,EXPERIMENTAL,5de3d4fc1d61c93cd498bb92,N,control,conjunction
N,C22,control,conditional,,,,"If the lamp stops working, we will replace the bulb.",The bulb will be changed.,7909,"Premise: If the lamp stops working, we will replace the bulb. / Conclusion: The bulb will be changed.",n,html-keyboard-response,73,2.1.0,300757,EXPERIMENTAL,5de3d4fc1d61c93cd498bb92,N,control,conditional
N,M21,modal,all_single,B,,,Every participant restrung the instrument or polished the lyrics.,At least one participant polished the lyrics.,8624,Premise: Every participant restrung the instrument or polished the lyrics. / Conclusion: At least one participant polished the lyrics.,b,html-keyboard-response,75,2.1.0,310389,EXPERIMENTAL,5de3d4fc1d61c93cd498bb92,N,modal,all_single
N,C31,control,quantifier,,,,Some cars have all-wheel drive.,Some cars have dual exhaust.,5312,Premise: Some cars have all-wheel drive. / Conclusion: Some cars have dual exhaust.,n,html-keyboard-response,77,2.1.0,316709,EXPERIMENTAL,5de3d4fc1d61c93cd498bb92,N,control,quantifier
N,C33,control,quantifier,,,,Every table is a piece of furniture.,"If you have only a table in your room, you don’t have any furniture.",5060,"Premise: Every table is a piece of furniture. / Conclusion: If you have only a table in your room, you don’t have any furniture.",n,html-keyboard-response,79,2.1.0,322772,EXPERIMENTAL,5de3d4fc1d61c93cd498bb92,N,control,quantifier
?,W45,want,atleast_single_b,B,,,Avery wants to schedule a rehearsal or at least adjust the metronome.,Avery wants to adjust the metronome.,9863,Premise: Avery wants to schedule a rehearsal or at least adjust the metronome. / Conclusion: Avery wants to adjust the metronome.,b,html-keyboard-response,81,2.1.0,333645,EXPERIMENTAL,5de3d4fc1d61c93cd498bb92,?,want,atleast_single_b
?,W37,want,want_mind_single,B,,,Rowan wants to format the bibliography or read the article summary.,Rowan is fine with reading the article summary.,10132,Premise: Rowan wants to format the bibliography or read the article summary. / Conclusion: Rowan is fine with reading the article summary.,b,html-keyboard-response,83,2.1.0,344781,EXPERIMENTAL,5de3d4fc1d61c93cd498bb92,?,want,want_mind_single
?,M04,modal,allowed_single,A,,,Jules is allowed to dim the room lights or collect the RSVPs.,Jules is allowed to dim the room lights.,6493,Premise: Jules is allowed to dim the room lights or collect the RSVPs. / Conclusion: Jules is allowed to dim the room lights.,b,html-keyboard-response,85,2.1.0,352276,EXPERIMENTAL,5de3d4fc1d61c93cd498bb92,?,modal,allowed_single
Y,C04,control,conjunction,,,,The student opened the window and aired out the room.,The student let fresh air inside.,3554,Premise: The student opened the window and aired out the room. / Conclusion: The student let fresh air inside.,b,html-keyboard-response,87,2.1.0,356836,EXPERIMENTAL,5de3d4fc1d61c93cd498bb92,Y,control,conjunction
?,W31,want,want_single,B,,,Taylor wants to pack the leftovers or simmer the sauce.,Taylor wants to simmer the sauce.,6380,Premise: Taylor wants to pack the leftovers or simmer the sauce. / Conclusion: Taylor wants to simmer the sauce.,b,html-keyboard-response,89,2.1.0,364220,EXPERIMENTAL,5de3d4fc1d61c93cd498bb92,?,want,want_single
N,C08,control,conjunction,,,,The delivery truck stopped at the warehouse and unloaded several crates.,The delivery truck stopped at the supermarket.,4924,Premise: The delivery truck stopped at the warehouse and unloaded several crates. / Conclusion: The delivery truck stopped at the supermarket.,n,html-keyboard-response,91,2.1.0,370156,EXPERIMENTAL,5de3d4fc1d61c93cd498bb92,N,control,conjunction
?,W34,want,want_mind_and,AND,,,Kelly wants to stretch the hamstrings or pack the first-aid kit.,Kelly would be okay with stretching the hamstrings and would be okay with packing the first-aid kit.,7539,Premise: Kelly wants to stretch the hamstrings or pack the first-aid kit. / Conclusion: Kelly would be okay with stretching the hamstrings and would be okay with packing the first-aid kit.,b,html-keyboard-response,93,2.1.0,378700,EXPERIMENTAL,5de3d4fc1d61c93cd498bb92,?,want,want_mind_and
Y,C12,control,conditional,,,,"Since the engine overheated, the car stopped on the roadside.",The engine became too hot.,4011,"Premise: Since the engine overheated, the car stopped on the roadside. / Conclusion: The engine became too hot.",b,html-keyboard-response,95,2.1.0,383717,EXPERIMENTAL,5de3d4fc1d61c93cd498bb92,Y,control,conditional
Y,C26,control,quantifier,,,,All toads have poison glands.,"If you find a true toad in your garden, it will have poison glands.",5728,"Premise: All toads have poison glands. / Conclusion: If you find a true toad in your garden, it will have poison glands.",b,html-keyboard-response,97,2.1.0,390452,EXPERIMENTAL,5de3d4fc1d61c93cd498bb92,Y,control,quantifier
N,M23,modal,all_single,B,,,All of them scouted the shooting location or packed the lens kit.,Some of them packed the lens kit.,11563,Premise: All of them scouted the shooting location or packed the lens kit. / Conclusion: Some of them packed the lens kit.,b,html-keyboard-response,99,2.1.0,403028,EXPERIMENTAL,5de3d4fc1d61c93cd498bb92,N,modal,all_single
Y,C39,control,presupposition,,,,Anne realized that the tire was flat.,The tire was flat.,3678,Premise: Anne realized that the tire was flat. / Conclusion: The tire was flat.,b,html-keyboard-response,101,2.1.0,407708,EXPERIMENTAL,5de3d4fc1d61c93cd498bb92,Y,control,presupposition
Y,C15,control,conditional,,,,"Since Daniel overslept, he arrived at the meeting much later than planned.",Daniel got up later than he intended.,4218,"Premise: Since Daniel overslept, he arrived at the meeting much later than planned. / Conclusion: Daniel got up later than he intended.",b,html-keyboard-response,103,2.1.0,412932,EXPERIMENTAL,5de3d4fc1d61c93cd498bb92,Y,control,conditional
Y,C25,control,quantifier,,,,Some cars have all-wheel drive.,Some all-wheel-drive vehicles are cars.,7839,Premise: Some cars have all-wheel drive. / Conclusion: Some all-wheel-drive vehicles are cars.,b,html-keyboard-response,105,2.1.0,421772,EXPERIMENTAL,5de3d4fc1d61c93cd498bb92,Y,control,quantifier
?,W44,want,atleast_single_b,B,,,Harper wants to prepare the snack table or at least arrange the seating.,Harper wants to arrange the seating.,5565,Premise: Harper wants to prepare the snack table or at least arrange the seating. / Conclusion: Harper wants to arrange the seating.,b,html-keyboard-response,107,2.1.0,428348,EXPERIMENTAL,5de3d4fc1d61c93cd498bb92,?,want,atleast_single_b
?,W47,want,atleast_single_b,B,,,Sawyer wants to test the microphone or at least review the agenda.,Sawyer wants to review the agenda.,6190,Premise: Sawyer wants to test the microphone or at least review the agenda. / Conclusion: Sawyer wants to review the agenda.,b,html-keyboard-response,109,2.1.0,435540,EXPERIMENTAL,5de3d4fc1d61c93cd498bb92,?,want,atleast_single_b
?,W30,want,want_single,A,,,Frankie wants to marinate the tofu or set the table.,Frankie wants to marinate the tofu.,5961,Premise: Frankie wants to marinate the tofu or set the table. / Conclusion: Frankie wants to marinate the tofu.,b,html-keyboard-response,111,2.1.0,442507,EXPERIMENTAL,5de3d4fc1d61c93cd498bb92,?,want,want_single
?,W46,want,atleast_single_b,B,,,Corey wants to record a demo or at least tune the guitar.,Corey wants to tune the guitar.,5760,Premise: Corey wants to record a demo or at least tune the guitar. / Conclusion: Corey wants to tune the guitar.,b,html-keyboard-response,113,2.1.0,449276,EXPERIMENTAL,5de3d4fc1d61c93cd498bb92,?,want,atleast_single_b
N,M20,modal,all_single,A,,,Everyone edited the raw photos or charged the camera batteries.,Some people edited the raw photos.,11028,Premise: Everyone edited the raw photos or charged the camera batteries. / Conclusion: Some people edited the raw photos.,b,html-keyboard-response,115,2.1.0,461307,EXPERIMENTAL,5de3d4fc1d61c93cd498bb92,N,modal,all_single
Y,C00,control,conjunction,,,,Emma walked to the lake and fed the ducks.,Emma gave food to the ducks.,5998,Premise: Emma walked to the lake and fed the ducks. / Conclusion: Emma gave food to the ducks.,b,html-keyboard-response,117,2.1.0,468307,EXPERIMENTAL,5de3d4fc1d61c93cd498bb92,Y,control,conjunction
?,W33,want,want_mind_and,AND,,,Ryan wants to scrub the tile grout or paint the hallway.,Ryan is fine with scrubbing the tile grout and is fine with painting the hallway.,6834,Premise: Ryan wants to scrub the tile grout or paint the hallway. / Conclusion: Ryan is fine with scrubbing the tile grout and is fine with painting the hallway.,b,html-keyboard-response,119,2.1.0,476147,EXPERIMENTAL,5de3d4fc1d61c93cd498bb92,?,want,want_mind_and
?,W38,want,want_mind_single,A,,,Casey wants to rehearse the presentation or edit the slide deck.,Casey would be okay with rehearsing the presentation.,8037,Premise: Casey wants to rehearse the presentation or edit the slide deck. / Conclusion: Casey would be okay with rehearsing the presentation.,b,html-keyboard-response,121,2.1.0,485187,EXPERIMENTAL,5de3d4fc1d61c93cd498bb92,?,want,want_mind_single
N,C20,control,conditional,,,,"If the software updates successfully, the interface will change.",The layout will look different.,11935,"Premise: If the software updates successfully, the interface will change. / Conclusion: The layout will look different.",n,html-keyboard-response,124,2.1.0,515931,EXPERIMENTAL,5de3d4fc1d61c93cd498bb92,N,control,conditional
?,M13,modal,must_single,B,,,Logan is supposed to clean the exercise gear or time the sprint intervals.,Logan is allowed to time the sprint intervals.,5645,Premise: Logan is supposed to clean the exercise gear or time the sprint intervals. / Conclusion: Logan is allowed to time the sprint intervals.,b,html-keyboard-response,126,2.1.0,522579,EXPERIMENTAL,5de3d4fc1d61c93cd498bb92,?,modal,must_single
Y,C28,control,quantifier,,,,There exists a book that has been read by everyone.,Everyone read at least one book.,9796,Premise: There exists a book that has been read by everyone. / Conclusion: Everyone read at least one book.,b,html-keyboard-response,128,2.1.0,533379,EXPERIMENTAL,5de3d4fc1d61c93cd498bb92,Y,control,quantifier
N,C30,control,quantifier,,,,Some birds have long legs.,Some birds have long beaks.,3509,Premise: Some birds have long legs. / Conclusion: Some birds have long beaks.,n,html-keyboard-response,130,2.1.0,537890,EXPERIMENTAL,5de3d4fc1d61c93cd498bb92,N,control,quantifier
N,C34,control,quantifier,,,,Everyone read at least one book.,There is a book that has been read by everyone.,5402,Premise: Everyone read at least one book. / Conclusion: There is a book that has been read by everyone.,n,html-keyboard-response,132,2.1.0,544299,EXPERIMENTAL,5de3d4fc1d61c93cd498bb92,N,control,quantifier
N,C44,control,presupposition,,,,Andrew talked to his daughter.,Andrew has two daughters.,3294,Premise: Andrew talked to his daughter. / Conclusion: Andrew has two daughters.,n,html-keyboard-response,134,2.1.0,548594,EXPERIMENTAL,5de3d4fc1d61c93cd498bb92,N,control,presupposition
Y,C41,control,presupposition,,,,"Maggie spent holidays in Paris, again.",Maggie had already visited Paris before.,5467,"Premise: Maggie spent holidays in Paris, again. / Conclusion: Maggie had already visited Paris before.",b,html-keyboard-response,136,2.1.0,555067,EXPERIMENTAL,5de3d4fc1d61c93cd498bb92,Y,control,presupposition
?,M03,modal,allowed_and,AND,,,Drew is cleared to repair the loose hinge or sweep the front porch.,Drew is cleared to repair the loose hinge and cleared to sweep the front porch.,9382,Premise: Drew is cleared to repair the loose hinge or sweep the front porch. / Conclusion: Drew is cleared to repair the loose hinge and cleared to sweep the front porch.,b,html-keyboard-response,138,2.1.0,565459,EXPERIMENTAL,5de3d4fc1d61c93cd498bb92,?,modal,allowed_and
N,C35,control,quantifier,,,,Everybody has an idol.,There is a person who is an idol for everyone.,5304,Premise: Everybody has an idol. / Conclusion: There is a person who is an idol for everyone.,n,html-keyboard-response,140,2.1.0,571770,EXPERIMENTAL,5de3d4fc1d61c93cd498bb92,N,control,quantifier
N,M19,modal,all_and,AND,,,All of them mounted the canvas or sanded the wooden edges.,"Some of them  mounted the canvas, and some of them sanded the wooden edges.",9635,"Premise: All of them mounted the canvas or sanded the wooden edges. / Conclusion: Some of them  mounted the canvas, and some of them sanded the wooden edges.",b,html-keyboard-response,142,2.1.0,582419,EXPERIMENTAL,5de3d4fc1d61c93cd498bb92,N,modal,all_and
?,M01,modal,allowed_and,AND,,,Kendall has permission to print the travel itinerary or to check the boarding times.,Kendall has permission to print the travel itinerary and has permission to check the boarding times.,8086,Premise: Kendall has permission to print the travel itinerary or to check the boarding times. / Conclusion: Kendall has permission to print the travel itinerary and has permission to check the boarding times.,b,html-keyboard-response,144,2.1.0,591514,EXPERIMENTAL,5de3d4fc1d61c93cd498bb92,?,modal,allowed_and
?,W43,want,atleast_single_a,A,,,Finley wants to clean the watering cans or at least pull the weeds.,Finley wants to clean the watering cans.,5206,Premise: Finley wants to clean the watering cans or at least pull the weeds. / Conclusion: Finley wants to clean the watering cans.,b,html-keyboard-response,146,2.1.0,597722,EXPERIMENTAL,5de3d4fc1d61c93cd498bb92,?,want,atleast_single_a
?,W32,want,want_mind_and,AND,,,Elliot wants to check the bike tires or cool down after practice.,"Elliot does not mind checking the bike tires, and does not mind cooling down after practice.",6833,"Premise: Elliot wants to check the bike tires or cool down after practice. / Conclusion: Elliot does not mind checking the bike tires, and does not mind cooling down after practice.",b,html-keyboard-response,148,2.1.0,605562,EXPERIMENTAL,5de3d4fc1d61c93cd498bb92,?,want,want_mind_and
?,W40,want,atleast_single_a,A,,,Charlie wants to trim the hedges or at least stake the tomato vines.,Charlie wants to trim the hedges.,4395,Premise: Charlie wants to trim the hedges or at least stake the tomato vines. / Conclusion: Charlie wants to trim the hedges.,b,html-keyboard-response,150,2.1.0,610962,EXPERIMENTAL,5de3d4fc1d61c93cd498bb92,?,want,atleast_single_a
N,C06,control,conjunction,,,,Sophie cleaned the guest room and changed all the bed linens.,Sophie attended a music festival.,4403,Premise: Sophie cleaned the guest room and changed all the bed linens. / Conclusion: Sophie attended a music festival.,n,html-keyboard-response,152,2.1.0,616370,EXPERIMENTAL,5de3d4fc1d61c93cd498bb92,N,control,conjunction
Y,C36,control,presupposition,,,,John quit smoking last year.,John used to smoke in the past.,3084,Premise: John quit smoking last year. / Conclusion: John used to smoke in the past.,b,html-keyboard-response,154,2.1.0,620458,EXPERIMENTAL,5de3d4fc1d61c93cd498bb92,Y,control,presupposition
N,C43,control,presupposition,,,,Sue visited her brother.,Sue has no siblings.,2247,Premise: Sue visited her brother. / Conclusion: Sue has no siblings.,n,html-keyboard-response,156,2.1.0,623714,EXPERIMENTAL,5de3d4fc1d61c93cd498bb92,N,control,presupposition
N,M16,modal,all_and,AND,,,Everyone learned the bridge section or warmed up the scales.,"Some people learned the bridge section, and some people warmed up the scales.",12796,"Premise: Everyone learned the bridge section or warmed up the scales. / Conclusion: Some people learned the bridge section, and some people warmed up the scales.",b,html-keyboard-response,158,2.1.0,637514,EXPERIMENTAL,5de3d4fc1d61c93cd498bb92,N,modal,all_and
?,W24,want,want_and,AND,,,Jordan wants to preheat the oven or grill the skewers.,Jordan wants to preheat the oven and wants to grill the skewers.,21420,Premise: Jordan wants to preheat the oven or grill the skewers. / Conclusion: Jordan wants to preheat the oven and wants to grill the skewers.,b,html-keyboard-response,160,2.1.0,659938,EXPERIMENTAL,5de3d4fc1d61c93cd498bb92,?,want,want_and
?,M12,modal,must_single,A,,,Tegan should sew the fabric border or glue the pieces.,Tegan may sew the fabric border.,8798,Premise: Tegan should sew the fabric border or glue the pieces. / Conclusion: Tegan may sew the fabric border.,b,html-keyboard-response,162,2.1.0,669745,EXPERIMENTAL,5de3d4fc1d61c93cd498bb92,?,modal,must_single
?,W35,want,want_mind_and,AND,,,Bailey wants to plant the herb seeds or mulch the garden bed.,Bailey has no objection to planting the herb seeds and has no objection to mulching the garden bed.,6779,Premise: Bailey wants to plant the herb seeds or mulch the garden bed. / Conclusion: Bailey has no objection to planting the herb seeds and has no objection to mulching the garden bed.,b,html-keyboard-response,164,2.1.0,677529,EXPERIMENTAL,5de3d4fc1d61c93cd498bb92,?,want,want_mind_and
Y,C40,control,presupposition,,,,Ruth knows that roses require a lot of water.,Roses need a lot of water.,4235,Premise: Ruth knows that roses require a lot of water. / Conclusion: Roses need a lot of water.,b,html-keyboard-response,166,2.1.0,682769,EXPERIMENTAL,5de3d4fc1d61c93cd498bb92,Y,control,presupposition
?,M00,modal,allowed_and,AND,,,Morgan is allowed to garnish the plates or bake the rolls.,Morgan is allowed to garnish the plates and is allowed to bake the rolls.,4664,Premise: Morgan is allowed to garnish the plates or bake the rolls. / Conclusion: Morgan is allowed to garnish the plates and is allowed to bake the rolls.,b,html-keyboard-response,168,2.1.0,688441,EXPERIMENTAL,5de3d4fc1d61c93cd498bb92,?,modal,allowed_and
?,M06,modal,allowed_single,A,,,Parker is free to renew the passport or arrange the airport ride.,Parker is free to renew the passport.,4990,Premise: Parker is free to renew the passport or arrange the airport ride. / Conclusion: Parker is free to renew the passport.,b,html-keyboard-response,170,2.1.0,694441,EXPERIMENTAL,5de3d4fc1d61c93cd498bb92,?,modal,allowed_single
N,C45,control,presupposition,,,,Jim realized that the window was broken.,Jim realized that there were two windows.,4118,Premise: Jim realized that the window was broken. / Conclusion: Jim realized that there were two windows.,n,html-keyboard-response,172,2.1.0,699561,EXPERIMENTAL,5de3d4fc1d61c93cd498bb92,N,control,presupposition
N,C23,control,conditional,,,,"If the door sensor malfunctions, the lights will stay on overnight.",The lights will turn off early in the evening.,9426,"Premise: If the door sensor malfunctions, the lights will stay on overnight. / Conclusion: The lights will turn off early in the evening.",n,html-keyboard-response,174,2.1.0,709993,EXPERIMENTAL,5de3d4fc1d61c93cd498bb92,N,control,conditional
Y,C03,control,conjunction,,,,The cyclist crossed the old bridge and took a break by the river.,The cyclist rested near the water.,4848,Premise: The cyclist crossed the old bridge and took a break by the river. / Conclusion: The cyclist rested near the water.,b,html-keyboard-response,176,2.1.0,715849,EXPERIMENTAL,5de3d4fc1d61c93cd498bb92,Y,control,conjunction
N,C18,control,conditional,,,,"If the printer jams this morning, the reports will be delayed.",The device will power off on its own.,4165,"Premise: If the printer jams this morning, the reports will be delayed. / Conclusion: The device will power off on its own.",n,html-keyboard-response,178,2.1.0,721017,EXPERIMENTAL,5de3d4fc1d61c93cd498bb92,N,control,conditional
N,C09,control,conjunction,,,,The train passed through the village and slowed near the small station.,The train ended its route in the village.,6285,Premise: The train passed through the village and slowed near the small station. / Conclusion: The train ended its route in the village.,n,html-keyboard-response,180,2.1.0,728305,EXPERIMENTAL,5de3d4fc1d61c93cd498bb92,N,control,conjunction
?,M07,modal,allowed_single,B,,,Sage is cleared to paint the background or cut the stencil.,Sage is cleared to cut the stencil.,4173,Premise: Sage is cleared to paint the background or cut the stencil. / Conclusion: Sage is cleared to cut the stencil.,b,html-keyboard-response,182,2.1.0,733481,EXPERIMENTAL,5de3d4fc1d61c93cd498bb92,?,modal,allowed_single
N,C21,control,conditional,,,,"If the package arrives tomorrow, the office will process it immediately.",The parcel will be handled in a week time.,4164,"Premise: If the package arrives tomorrow, the office will process it immediately. / Conclusion: The parcel will be handled in a week time.",n,html-keyboard-response,184,2.1.0,738649,EXPERIMENTAL,5de3d4fc1d61c93cd498bb92,N,control,conditional
N,C42,control,presupposition,,,,Anne quit smoking last year.,Anne never smoked in the past.,2606,Premise: Anne quit smoking last year. / Conclusion: Anne never smoked in the past.,n,html-keyboard-response,186,2.1.0,742257,EXPERIMENTAL,5de3d4fc1d61c93cd498bb92,N,control,presupposition
?,W26,want,want_and,AND,,,Shiloh wants to confirm the hotel reservation or download the maps.,Shiloh wants to confirm the hotel reservation and wants to download the maps.,12449,Premise: Shiloh wants to confirm the hotel reservation or download the maps. / Conclusion: Shiloh wants to confirm the hotel reservation and wants to download the maps.,n,html-keyboard-response,188,2.1.0,755713,EXPERIMENTAL,5de3d4fc1d61c93cd498bb92,?,want,want_and
?,M05,modal,allowed_single,B,,,Devin has permission to photograph the sculpture garden or to adjust the white balance.,Devin has permission to adjust the white balance.,5274,Premise: Devin has permission to photograph the sculpture garden or to adjust the white balance. / Conclusion: Devin has permission to adjust the white balance.,b,html-keyboard-response,190,2.1.0,761993,EXPERIMENTAL,5de3d4fc1d61c93cd498bb92,?,modal,allowed_single
Y,C05,control,conjunction,,,,The drone circled over the field and recorded the migrating birds.,The drone captured footage of the migrating birds.,4091,Premise: The drone circled over the field and recorded the migrating birds. / Conclusion: The drone captured footage of the migrating birds.,b,html-keyboard-response,192,2.1.0,767089,EXPERIMENTAL,5de3d4fc1d61c93cd498bb92,Y,control,conjunction
N,C47,control,presupposition,,,,"Thomas broke his leg, again.",Thomas broke his arm in the past.,2721,"Premise: Thomas broke his leg, again. / Conclusion: Thomas broke his arm in the past.",n,html-keyboard-response,194,2.1.0,770816,EXPERIMENTAL,5de3d4fc1d61c93cd498bb92,N,control,presupposition
N,C11,control,conjunction,,,,Olivia watered the houseplants and trimmed the yellow leaves.,Olivia met her colleagues for a late meeting.,2934,Premise: Olivia watered the houseplants and trimmed the yellow leaves. / Conclusion: Olivia met her colleagues for a late meeting.,n,html-keyboard-response,196,2.1.0,774753,EXPERIMENTAL,5de3d4fc1d61c93cd498bb92,N,control,conjunction
N,M17,modal,all_and,AND,,,Every participant tested the smoke detector or organized the tool box.,"At least one participant tested the smoke detector, and at least one participant organized the tool box.",6027,"Premise: Every participant tested the smoke detector or organized the tool box. / Conclusion: At least one participant tested the smoke detector, and at least one participant organized the tool box.",b,html-keyboard-response,198,2.1.0,781793,EXPERIMENTAL,5de3d4fc1d61c93cd498bb92,N,modal,all_and
?,W42,want,atleast_single_a,A,,,Emery wants to charge the power bank or at least set an early alarm.,Emery wants to charge the power bank.,7488,Premise: Emery wants to charge the power bank or at least set an early alarm. / Conclusion: Emery wants to charge the power bank.,b,html-keyboard-response,200,2.1.0,790289,EXPERIMENTAL,5de3d4fc1d61c93cd498bb92,?,want,atleast_single_a
?,W29,want,want_single,B,,,Jamie wants to draft the introduction or annotate the source text.,Jamie wants to annotate the source text.,5846,Premise: Jamie wants to draft the introduction or annotate the source text. / Conclusion: Jamie wants to annotate the source text.,b,html-keyboard-response,202,2.1.0,797144,EXPERIMENTAL,5de3d4fc1d61c93cd498bb92,?,want,want_single
Y,C16,control,conditional,,,,"Since Carla didn’t charge her phone, it died halfway through the call.",Carla failed to charge her phone.,4328,"Premise: Since Carla didn’t charge her phone, it died halfway through the call. / Conclusion: Carla failed to charge her phone.",b,html-keyboard-response,204,2.1.0,802480,EXPERIMENTAL,5de3d4fc1d61c93cd498bb92,Y,control,conditional
?,W36,want,want_mind_single,A,,,Marley wants to refill the water bottles or set up the yoga mats.,Marley does not mind refilling the water bottles.,6331,Premise: Marley wants to refill the water bottles or set up the yoga mats. / Conclusion: Marley does not mind refilling the water bottles.,b,html-keyboard-response,206,2.1.0,809816,EXPERIMENTAL,5de3d4fc1d61c93cd498bb92,?,want,want_mind_single
Y,C02,control,conjunction,,,,Jacob opened the window and let in some fresh air.,Jacob allowed fresh air to enter the room.,3213,Premise: Jacob opened the window and let in some fresh air. / Conclusion: Jacob allowed fresh air to enter the room.,b,html-keyboard-response,208,2.1.0,814032,EXPERIMENTAL,5de3d4fc1d61c93cd498bb92,Y,control,conjunction
?,M11,modal,must_and,AND,,,Cameron is required to pack the carry-on bag or book the train tickets.,Cameron is allowed to pack the carry-on bag and is allowed to book the train tickets.,5885,Premise: Cameron is required to pack the carry-on bag or book the train tickets. / Conclusion: Cameron is allowed to pack the carry-on bag and is allowed to book the train tickets.,b,html-keyboard-response,210,2.1.0,820920,EXPERIMENTAL,5de3d4fc1d61c93cd498bb92,?,modal,must_and
N,C46,control,presupposition,,,,Albert knows that geraniums prefer full sun.,Albert likes geraniums.,4322,Premise: Albert knows that geraniums prefer full sun. / Conclusion: Albert likes geraniums.,n,html-keyboard-response,212,2.1.0,826256,EXPERIMENTAL,5de3d4fc1d61c93cd498bb92,N,control,presupposition
Y,C37,control,presupposition,,,,Mary visited her brother.,Mary has siblings.,2301,Premise: Mary visited her brother. / Conclusion: Mary has siblings.,b,html-keyboard-response,214,2.1.0,829568,EXPERIMENTAL,5de3d4fc1d61c93cd498bb92,Y,control,presupposition
Y,C38,control,presupposition,,,,Emma talked to her son.,Emma has children.,3823,Premise: Emma talked to her son. / Conclusion: Emma has children.,b,html-keyboard-response,216,2.1.0,834392,EXPERIMENTAL,5de3d4fc1d61c93cd498bb92,Y,control,presupposition
?,W27,want,want_and,AND,,,Ari wants to outline the report or email the instructor questions.,Ari wants to outline the report and wants to email the instructor questions.,12142,Premise: Ari wants to outline the report or email the instructor questions. / Conclusion: Ari wants to outline the report and wants to email the instructor questions.,n,html-keyboard-response,218,2.1.0,847544,EXPERIMENTAL,5de3d4fc1d61c93cd498bb92,?,want,want_and
N,P05,control,quantifier,,,0.0,Some blondes have dark eyes.,Some blondes have dark clothes.,6080,Premise: Some blondes have dark eyes. / Conclusion: Some blondes have dark clothes.,n,html-keyboard-response,2,2.1.0,34269,PRACTICE,5f6c9e7e9d4078069e0d5e08,N,control,quantifier
N,P03,control,conditional,,,0.0,"If Laura finishes preparing the detailed report today, she will send it to the entire team.",Laura will send the report to the team.,12158,"Premise: If Laura finishes preparing the detailed report today, she will send it to the entire team. / Conclusion: Laura will send the report to the team.",n,html-keyboard-response,5,2.1.0,49223,PRACTICE,5f6c9e7e9d4078069e0d5e08,N,control,conditional
N,P01,control,conjunction,,,0.0,The tourist visited the castle and photographed the courtyard.,The tourist visited the cathedral.,6230,Premise: The tourist visited the castle and photographed the courtyard. / Conclusion: The tourist visited the cathedral.,n,html-keyboard-response,8,2.1.0,57886,PRACTICE,5f6c9e7e9d4078069e0d5e08,N,control,conjunction
Y,P04,control,quantifier,,,0.0,Some blondes have dark eyes.,Some people with dark eyes are blondes.,4462,Premise: Some blondes have dark eyes. / Conclusion: Some people with dark eyes are blondes.,b,html-keyboard-response,11,2.1.0,64715,PRACTICE,5f6c9e7e9d4078069e0d5e08,Y,control,quantifier
Y,P00,control,conjunction,,,0.0,Sophia stopped by the bakery and bought fresh bread.,Sophia went to the bakery.,3816,Premise: Sophia stopped by the bakery and bought fresh bread. / Conclusion: Sophia went to the bakery.,b,html-keyboard-response,14,2.1.0,70966,PRACTICE,5f6c9e7e9d4078069e0d5e08,Y,control,conjunction
Y,P06,control,presupposition,,,0.0,Alice won a car race.,Alice participated in a car race.,3674,Premise: Alice won a car race. / Conclusion: Alice participated in a car race.,b,html-keyboard-response,17,2.1.0,76681,PRACTICE,5f6c9e7e9d4078069e0d5e08,Y,control,presupposition
Y,P02,control,conditional,,,0.0,"Since heavy fog covered the valley, the hikers lost visibility.",The hikers could no longer see their surroundings clearly.,4617,"Premise: Since heavy fog covered the valley, the hikers lost visibility. / Conclusion: The hikers could no longer see their surroundings clearly.",b,html-keyboard-response,20,2.1.0,83563,PRACTICE,5f6c9e7e9d4078069e0d5e08,Y,control,conditional
N,P07,control,presupposition,,,0.0,Mark won a car race.,Mark has never participated in a car race.,2518,Premise: Mark won a car race. / Conclusion: Mark has never participated in a car race.,n,html-keyboard-response,23,2.1.0,88346,PRACTICE,5f6c9e7e9d4078069e0d5e08,N,control,presupposition
N,C09,control,conjunction,,,,The train passed through the village and slowed near the small station.,The train ended its route in the village.,7002,Premise: The train passed through the village and slowed near the small station. / Conclusion: The train ended its route in the village.,n,html-keyboard-response,27,2.1.0,102053,EXPERIMENTAL,5f6c9e7e9d4078069e0d5e08,N,control,conjunction
?,W41,want,atleast_single_a,A,,,Dakota wants to cue the playlist or at least label the name tags.,Dakota wants to cue the playlist.,6086,Premise: Dakota wants to cue the playlist or at least label the name tags. / Conclusion: Dakota wants to cue the playlist.,b,html-keyboard-response,29,2.1.0,109140,EXPERIMENTAL,5f6c9e7e9d4078069e0d5e08,?,want,atleast_single_a
?,W26,want,want_and,AND,,,Shiloh wants to confirm the hotel reservation or download the maps.,Shiloh wants to confirm the hotel reservation and wants to download the maps.,7772,Premise: Shiloh wants to confirm the hotel reservation or download the maps. / Conclusion: Shiloh wants to confirm the hotel reservation and wants to download the maps.,b,html-keyboard-response,31,2.1.0,117924,EXPERIMENTAL,5f6c9e7e9d4078069e0d5e08,?,want,want_and
?,M05,modal,allowed_single,B,,,Devin has permission to photograph the sculpture garden or to adjust the white balance.,Devin has permission to adjust the white balance.,8294,Premise: Devin has permission to photograph the sculpture garden or to adjust the white balance. / Conclusion: Devin has permission to adjust the white balance.,b,html-keyboard-response,33,2.1.0,127220,EXPERIMENTAL,5f6c9e7e9d4078069e0d5e08,?,modal,allowed_single
?,M08,modal,must_and,AND,,,Eden should clean the air filter or replace the lightbulb.,"Eden may clean the air filter, and may replace the lightbulb.",6760,"Premise: Eden should clean the air filter or replace the lightbulb. / Conclusion: Eden may clean the air filter, and may replace the lightbulb.",b,html-keyboard-response,35,2.1.0,134989,EXPERIMENTAL,5f6c9e7e9d4078069e0d5e08,?,modal,must_and
?,W38,want,want_mind_single,A,,,Casey wants to rehearse the presentation or edit the slide deck.,Casey would be okay with rehearsing the presentation.,7080,Premise: Casey wants to rehearse the presentation or edit the slide deck. / Conclusion: Casey would be okay with rehearsing the presentation.,b,html-keyboard-response,37,2.1.0,143073,EXPERIMENTAL,5f6c9e7e9d4078069e0d5e08,?,want,want_mind_single
?,M12,modal,must_single,A,,,Tegan should sew the fabric border or glue the pieces.,Tegan may sew the fabric border.,7446,Premise: Tegan should sew the fabric border or glue the pieces. / Conclusion: Tegan may sew the fabric border.,b,html-keyboard-response,39,2.1.0,151521,EXPERIMENTAL,5f6c9e7e9d4078069e0d5e08,?,modal,must_single
Y,C00,control,conjunction,,,,Emma walked to the lake and fed the ducks.,Emma gave food to the ducks.,3802,Premise: Emma walked to the lake and fed the ducks. / Conclusion: Emma gave food to the ducks.,b,html-keyboard-response,41,2.1.0,156325,EXPERIMENTAL,5f6c9e7e9d4078069e0d5e08,Y,control,conjunction
?,M04,modal,allowed_single,A,,,Jules is allowed to dim the room lights or collect the RSVPs.,Jules is allowed to dim the room lights.,6274,Premise: Jules is allowed to dim the room lights or collect the RSVPs. / Conclusion: Jules is allowed to dim the room lights.,b,html-keyboard-response,43,2.1.0,163603,EXPERIMENTAL,5f6c9e7e9d4078069e0d5e08,?,modal,allowed_single
?,M00,modal,allowed_and,AND,,,Morgan is allowed to garnish the plates or bake the rolls.,Morgan is allowed to garnish the plates and is allowed to bake the rolls.,9120,Premise: Morgan is allowed to garnish the plates or bake the rolls. / Conclusion: Morgan is allowed to garnish the plates and is allowed to bake the rolls.,b,html-keyboard-response,45,2.1.0,173731,EXPERIMENTAL,5f6c9e7e9d4078069e0d5e08,?,modal,allowed_and
Y,C40,control,presupposition,,,,Ruth knows that roses require a lot of water.,Roses need a lot of water.,6011,Premise: Ruth knows that roses require a lot of water. / Conclusion: Roses need a lot of water.,b,html-keyboard-response,47,2.1.0,180745,EXPERIMENTAL,5f6c9e7e9d4078069e0d5e08,Y,control,presupposition
?,W32,want,want_mind_and,AND,,,Elliot wants to check the bike tires or cool down after practice.,"Elliot does not mind checking the bike tires, and does not mind cooling down after practice.",8852,"Premise: Elliot wants to check the bike tires or cool down after practice. / Conclusion: Elliot does not mind checking the bike tires, and does not mind cooling down after practice.",b,html-keyboard-response,49,2.1.0,190605,EXPERIMENTAL,5f6c9e7e9d4078069e0d5e08,?,want,want_mind_and
Y,C27,control,quantifier,,,,Every table is a piece of furniture.,"If you have a table in your room, you have a piece of furniture.",4240,"Premise: Every table is a piece of furniture. / Conclusion: If you have a table in your room, you have a piece of furniture.",b,html-keyboard-response,51,2.1.0,195848,EXPERIMENTAL,5f6c9e7e9d4078069e0d5e08,Y,control,quantifier
N,C46,control,presupposition,,,,Albert knows that geraniums prefer full sun.,Albert likes geraniums.,3250,Premise: Albert knows that geraniums prefer full sun. / Conclusion: Albert likes geraniums.,n,html-keyboard-response,53,2.1.0,200104,EXPERIMENTAL,5f6c9e7e9d4078069e0d5e08,N,control,presupposition
?,W36,want,want_mind_single,A,,,Marley wants to refill the water bottles or set up the yoga mats.,Marley does not mind refilling the water bottles.,6097,Premise: Marley wants to refill the water bottles or set up the yoga mats. / Conclusion: Marley does not mind refilling the water bottles.,b,html-keyboard-response,55,2.1.0,207203,EXPERIMENTAL,5f6c9e7e9d4078069e0d5e08,?,want,want_mind_single
?,W37,want,want_mind_single,B,,,Rowan wants to format the bibliography or read the article summary.,Rowan is fine with reading the article summary.,3989,Premise: Rowan wants to format the bibliography or read the article summary. / Conclusion: Rowan is fine with reading the article summary.,b,html-keyboard-response,57,2.1.0,212207,EXPERIMENTAL,5f6c9e7e9d4078069e0d5e08,?,want,want_mind_single
?,W39,want,want_mind_single,B,,,Remy wants to jog the trail loop or map the running route.,Remy has no objection to mapping the running route.,29443,Premise: Remy wants to jog the trail loop or map the running route. / Conclusion: Remy has no objection to mapping the running route.,b,html-keyboard-response,59,2.1.0,242660,EXPERIMENTAL,5f6c9e7e9d4078069e0d5e08,?,want,want_mind_single
?,M03,modal,allowed_and,AND,,,Drew is cleared to repair the loose hinge or sweep the front porch.,Drew is cleared to repair the loose hinge and cleared to sweep the front porch.,17171,Premise: Drew is cleared to repair the loose hinge or sweep the front porch. / Conclusion: Drew is cleared to repair the loose hinge and cleared to sweep the front porch.,b,html-keyboard-response,61,2.1.0,260845,EXPERIMENTAL,5f6c9e7e9d4078069e0d5e08,?,modal,allowed_and
Y,C36,control,presupposition,,,,John quit smoking last year.,John used to smoke in the past.,2859,Premise: John quit smoking last year. / Conclusion: John used to smoke in the past.,b,html-keyboard-response,63,2.1.0,264710,EXPERIMENTAL,5f6c9e7e9d4078069e0d5e08,Y,control,presupposition
?,M14,modal,must_single,A,,,Dylan is expected to print the handouts or review the survey data.,Dylan is allowed to  print the handouts.,5484,Premise: Dylan is expected to print the handouts or review the survey data. / Conclusion: Dylan is allowed to  print the handouts.,b,html-keyboard-response,65,2.1.0,271201,EXPERIMENTAL,5f6c9e7e9d4078069e0d5e08,?,modal,must_single
Y,C01,control,conjunction,,,,Oliver called his brother and apologized for the argument.,Oliver said he was sorry.,3717,Premise: Oliver called his brother and apologized for the argument. / Conclusion: Oliver said he was sorry.,b,html-keyboard-response,67,2.1.0,275921,EXPERIMENTAL,5f6c9e7e9d4078069e0d5e08,Y,control,conjunction
N,C31,control,quantifier,,,,Some cars have all-wheel drive.,Some cars have dual exhaust.,3376,Premise: Some cars have all-wheel drive. / Conclusion: Some cars have dual exhaust.,n,html-keyboard-response,69,2.1.0,280305,EXPERIMENTAL,5f6c9e7e9d4078069e0d5e08,N,control,quantifier
?,W40,want,atleast_single_a,A,,,Charlie wants to trim the hedges or at least stake the tomato vines.,Charlie wants to trim the hedges.,4941,Premise: Charlie wants to trim the hedges or at least stake the tomato vines. / Conclusion: Charlie wants to trim the hedges.,b,html-keyboard-response,71,2.1.0,286253,EXPERIMENTAL,5f6c9e7e9d4078069e0d5e08,?,want,atleast_single_a
?,M02,modal,allowed_and,AND,,,Kennedy is free to harvest the cucumbers or compost the clippings.,Kennedy is free to harvest the cucumbers and is free to compost the clippings.,7023,Premise: Kennedy is free to harvest the cucumbers or compost the clippings. / Conclusion: Kennedy is free to harvest the cucumbers and is free to compost the clippings.,b,html-keyboard-response,73,2.1.0,294282,EXPERIMENTAL,5f6c9e7e9d4078069e0d5e08,?,modal,allowed_and
N,C07,control,conjunction,,,,Daniel organized the bookshelf and donated a stack of novels.,Daniel had lunch at a sushi bar.,3447,Premise: Daniel organized the bookshelf and donated a stack of novels. / Conclusion: Daniel had lunch at a sushi bar.,n,html-keyboard-response,75,2.1.0,298735,EXPERIMENTAL,5f6c9e7e9d4078069e0d5e08,N,control,conjunction
?,W43,want,atleast_single_a,A,,,Finley wants to clean the watering cans or at least pull the weeds.,Finley wants to clean the watering cans.,3855,Premise: Finley wants to clean the watering cans or at least pull the weeds. / Conclusion: Finley wants to clean the watering cans.,b,html-keyboard-response,77,2.1.0,303592,EXPERIMENTAL,5f6c9e7e9d4078069e0d5e08,?,want,atleast_single_a
Y,C41,control,presupposition,,,,"Maggie spent holidays in Paris, again.",Maggie had already visited Paris before.,3493,"Premise: Maggie spent holidays in Paris, again. / Conclusion: Maggie had already visited Paris before.",b,html-keyboard-response,79,2.1.0,308089,EXPERIMENTAL,5f6c9e7e9d4078069e0d5e08,Y,control,presupposition
N,C23,control,conditional,,,,"If the door sensor malfunctions, the lights will stay on overnight.",The lights will turn off early in the evening.,8851,"Premise: If the door sensor malfunctions, the lights will stay on overnight. / Conclusion: The lights will turn off early in the evening.",n,html-keyboard-response,81,2.1.0,317946,EXPERIMENTAL,5f6c9e7e9d4078069e0d5e08,N,control,conditional
Y,C05,control,conjunction,,,,The drone circled over the field and recorded the migrating birds.,The drone captured footage of the migrating birds.,7016,Premise: The drone circled over the field and recorded the migrating birds. / Conclusion: The drone captured footage of the migrating birds.,b,html-keyboard-response,83,2.1.0,325965,EXPERIMENTAL,5f6c9e7e9d4078069e0d5e08,Y,control,conjunction
?,M11,modal,must_and,AND,,,Cameron is required to pack the carry-on bag or book the train tickets.,Cameron is allowed to pack the carry-on bag and is allowed to book the train tickets.,6244,Premise: Cameron is required to pack the carry-on bag or book the train tickets. / Conclusion: Cameron is allowed to pack the carry-on bag and is allowed to book the train tickets.,b,html-keyboard-response,85,2.1.0,333218,EXPERIMENTAL,5f6c9e7e9d4078069e0d5e08,?,modal,must_and
Y,C39,control,presupposition,,,,Anne realized that the tire was flat.,The tire was flat.,3995,Premise: Anne realized that the tire was flat. / Conclusion: The tire was flat.,b,html-keyboard-response,87,2.1.0,338218,EXPERIMENTAL,5f6c9e7e9d4078069e0d5e08,Y,control,presupposition
N,C30,control,quantifier,,,,Some birds have long legs.,Some birds have long beaks.,2534,Premise: Some birds have long legs. / Conclusion: Some birds have long beaks.,n,html-keyboard-response,89,2.1.0,341758,EXPERIMENTAL,5f6c9e7e9d4078069e0d5e08,N,control,quantifier
N,M18,modal,all_and,AND,,,Each person sketched the layout or photographed the finished piece.,"At least one person sketched the layout, and at least one  photographed the finished piece.",16115,"Premise: Each person sketched the layout or photographed the finished piece. / Conclusion: At least one person sketched the layout, and at least one  photographed the finished piece.",n,html-keyboard-response,91,2.1.0,358879,EXPERIMENTAL,5f6c9e7e9d4078069e0d5e08,N,modal,all_and
N,C43,control,presupposition,,,,Sue visited her brother.,Sue has no siblings.,2751,Premise: Sue visited her brother. / Conclusion: Sue has no siblings.,n,html-keyboard-response,93,2.1.0,362635,EXPERIMENTAL,5f6c9e7e9d4078069e0d5e08,N,control,presupposition
Y,C15,control,conditional,,,,"Since Daniel overslept, he arrived at the meeting much later than planned.",Daniel got up later than he intended.,5336,"Premise: Since Daniel overslept, he arrived at the meeting much later than planned. / Conclusion: Daniel got up later than he intended.",b,html-keyboard-response,95,2.1.0,368981,EXPERIMENTAL,5f6c9e7e9d4078069e0d5e08,Y,control,conditional
Y,C26,control,quantifier,,,,All toads have poison glands.,"If you find a true toad in your garden, it will have poison glands.",7881,"Premise: All toads have poison glands. / Conclusion: If you find a true toad in your garden, it will have poison glands.",b,html-keyboard-response,97,2.1.0,377863,EXPERIMENTAL,5f6c9e7e9d4078069e0d5e08,Y,control,quantifier
?,M10,modal,must_and,AND,,,Riley is expected to boil the pasta or chop the vegetables.,Riley is free to boil the pasta and is free to chop the vegetables.,5009,Premise: Riley is expected to boil the pasta or chop the vegetables. / Conclusion: Riley is free to boil the pasta and is free to chop the vegetables.,b,html-keyboard-response,99,2.1.0,383877,EXPERIMENTAL,5f6c9e7e9d4078069e0d5e08,?,modal,must_and
N,C10,control,conjunction,,,,Liam repaired the old radio and tested its signal range.,Liam travelled to the mountains.,3146,Premise: Liam repaired the old radio and tested its signal range. / Conclusion: Liam travelled to the mountains.,n,html-keyboard-response,101,2.1.0,388036,EXPERIMENTAL,5f6c9e7e9d4078069e0d5e08,N,control,conjunction
N,C35,control,quantifier,,,,Everybody has an idol.,There is a person who is an idol for everyone.,6216,Premise: Everybody has an idol. / Conclusion: There is a person who is an idol for everyone.,n,html-keyboard-response,103,2.1.0,395258,EXPERIMENTAL,5f6c9e7e9d4078069e0d5e08,N,control,quantifier
Y,C24,control,quantifier,,,,Some birds have long legs.,Some creatures with long legs are birds.,3501,Premise: Some birds have long legs. / Conclusion: Some creatures with long legs are birds.,b,html-keyboard-response,105,2.1.0,399772,EXPERIMENTAL,5f6c9e7e9d4078069e0d5e08,Y,control,quantifier
?,W47,want,atleast_single_b,B,,,Sawyer wants to test the microphone or at least review the agenda.,Sawyer wants to review the agenda.,7199,Premise: Sawyer wants to test the microphone or at least review the agenda. / Conclusion: Sawyer wants to review the agenda.,b,html-keyboard-response,107,2.1.0,407975,EXPERIMENTAL,5f6c9e7e9d4078069e0d5e08,?,want,atleast_single_b
Y,C37,control,presupposition,,,,Mary visited her brother.,Mary has siblings.,1935,Premise: Mary visited her brother. / Conclusion: Mary has siblings.,b,html-keyboard-response,109,2.1.0,410914,EXPERIMENTAL,5f6c9e7e9d4078069e0d5e08,Y,control,presupposition
Y,C14,control,conditional,,,,"Since the window remained open all night, the room became unusually cold.",The room’s temperature dropped significantly.,3747,"Premise: Since the window remained open all night, the room became unusually cold. / Conclusion: The room’s temperature dropped significantly.",b,html-keyboard-response,111,2.1.0,415663,EXPERIMENTAL,5f6c9e7e9d4078069e0d5e08,Y,control,conditional
?,W27,want,want_and,AND,,,Ari wants to outline the report or email the instructor questions.,Ari wants to outline the report and wants to email the instructor questions.,9393,Premise: Ari wants to outline the report or email the instructor questions. / Conclusion: Ari wants to outline the report and wants to email the instructor questions.,b,html-keyboard-response,113,2.1.0,426058,EXPERIMENTAL,5f6c9e7e9d4078069e0d5e08,?,want,want_and
N,M19,modal,all_and,AND,,,All of them mounted the canvas or sanded the wooden edges.,"Some of them  mounted the canvas, and some of them sanded the wooden edges.",12112,"Premise: All of them mounted the canvas or sanded the wooden edges. / Conclusion: Some of them  mounted the canvas, and some of them sanded the wooden edges.",b,html-keyboard-response,115,2.1.0,439174,EXPERIMENTAL,5f6c9e7e9d4078069e0d5e08,N,modal,all_and
N,M20,modal,all_single,A,,,Everyone edited the raw photos or charged the camera batteries.,Some people edited the raw photos.,9248,Premise: Everyone edited the raw photos or charged the camera batteries. / Conclusion: Some people edited the raw photos.,b,html-keyboard-response,117,2.1.0,449423,EXPERIMENTAL,5f6c9e7e9d4078069e0d5e08,N,modal,all_single
N,C34,control,quantifier,,,,Everyone read at least one book.,There is a book that has been read by everyone.,5461,Premise: Everyone read at least one book. / Conclusion: There is a book that has been read by everyone.,n,html-keyboard-response,119,2.1.0,455898,EXPERIMENTAL,5f6c9e7e9d4078069e0d5e08,N,control,quantifier
Y,C38,control,presupposition,,,,Emma talked to her son.,Emma has children.,3292,Premise: Emma talked to her son. / Conclusion: Emma has children.,b,html-keyboard-response,121,2.1.0,460194,EXPERIMENTAL,5f6c9e7e9d4078069e0d5e08,Y,control,presupposition
Y,C04,control,conjunction,,,,The student opened the window and aired out the room.,The student let fresh air inside.,4687,Premise: The student opened the window and aired out the room. / Conclusion: The student let fresh air inside.,b,html-keyboard-response,124,2.1.0,491489,EXPERIMENTAL,5f6c9e7e9d4078069e0d5e08,Y,control,conjunction
?,W25,want,want_and,AND,,,Kai wants to mix the audio tracks or practice the chorus.,Kai wants to mix the audio tracks and wants to practice the chorus.,4229,Premise: Kai wants to mix the audio tracks or practice the chorus. / Conclusion: Kai wants to mix the audio tracks and wants to practice the chorus.,b,html-keyboard-response,126,2.1.0,496720,EXPERIMENTAL,5f6c9e7e9d4078069e0d5e08,?,want,want_and
?,W30,want,want_single,A,,,Frankie wants to marinate the tofu or set the table.,Frankie wants to marinate the tofu.,3310,Premise: Frankie wants to marinate the tofu or set the table. / Conclusion: Frankie wants to marinate the tofu.,b,html-keyboard-response,128,2.1.0,501035,EXPERIMENTAL,5f6c9e7e9d4078069e0d5e08,?,want,want_single
N,C44,control,presupposition,,,,Andrew talked to his daughter.,Andrew has two daughters.,2545,Premise: Andrew talked to his daughter. / Conclusion: Andrew has two daughters.,n,html-keyboard-response,130,2.1.0,504580,EXPERIMENTAL,5f6c9e7e9d4078069e0d5e08,N,control,presupposition
?,M06,modal,allowed_single,A,,,Parker is free to renew the passport or arrange the airport ride.,Parker is free to renew the passport.,2830,Premise: Parker is free to renew the passport or arrange the airport ride. / Conclusion: Parker is free to renew the passport.,b,html-keyboard-response,132,2.1.0,508415,EXPERIMENTAL,5f6c9e7e9d4078069e0d5e08,?,modal,allowed_single
Y,C02,control,conjunction,,,,Jacob opened the window and let in some fresh air.,Jacob allowed fresh air to enter the room.,3024,Premise: Jacob opened the window and let in some fresh air. / Conclusion: Jacob allowed fresh air to enter the room.,b,html-keyboard-response,134,2.1.0,512441,EXPERIMENTAL,5f6c9e7e9d4078069e0d5e08,Y,control,conjunction
?,W44,want,atleast_single_b,B,,,Harper wants to prepare the snack table or at least arrange the seating.,Harper wants to arrange the seating.,3777,Premise: Harper wants to prepare the snack table or at least arrange the seating. / Conclusion: Harper wants to arrange the seating.,b,html-keyboard-response,136,2.1.0,517226,EXPERIMENTAL,5f6c9e7e9d4078069e0d5e08,?,want,atleast_single_b
N,C11,control,conjunction,,,,Olivia watered the houseplants and trimmed the yellow leaves.,Olivia met her colleagues for a late meeting.,4028,Premise: Olivia watered the houseplants and trimmed the yellow leaves. / Conclusion: Olivia met her colleagues for a late meeting.,n,html-keyboard-response,138,2.1.0,522258,EXPERIMENTAL,5f6c9e7e9d4078069e0d5e08,N,control,conjunction
?,W24,want,want_and,AND,,,Jordan wants to preheat the oven or grill the skewers.,Jordan wants to preheat the oven and wants to grill the skewers.,4535,Premise: Jordan wants to preheat the oven or grill the skewers. / Conclusion: Jordan wants to preheat the oven and wants to grill the skewers.,b,html-keyboard-response,140,2.1.0,527797,EXPERIMENTAL,5f6c9e7e9d4078069e0d5e08,?,want,want_and
N,C45,control,presupposition,,,,Jim realized that the window was broken.,Jim realized that there were two windows.,3770,Premise: Jim realized that the window was broken. / Conclusion: Jim realized that there were two windows.,n,html-keyboard-response,142,2.1.0,532571,EXPERIMENTAL,5f6c9e7e9d4078069e0d5e08,N,control,presupposition
